Folder: CloneLHC_IW_model/LHC_elements/from_Benoit_BPMs

Note: LHC_elements/README_Crab.txt
# crab cavities
# latest information (E. Jensen) -> 16 cavities per beam instead of 12 as in the twiss files
-> we artifically change individual cavity length in HLLHC_BB_param.dat (26/16. instead of 26/12.)

File: BPMstripline_60mm.dat
 Dstrippipe Lconnect Lpipe Lstrip M Rbeam Rbpm Rconn Riso1 Rpipe Rstrip Strip WStrip Xcurved Xstraight alfa angle beam_charge beam_sigma modes tap transStrip xbeam ybeam Freq[GHz] Imp_Real[Ohm] Imp_Imag[Ohm]
 2.9 6.38 200 120 1 1.1 4 0.55 3.5 34.4 29.02 4.38 1 3.09 6.2 11.6 15 1.7e-008 50 1 21.0215 12.25 0 10 0 0 -7.9515
 2.9 6.38 200 120 1 1.1 4 0.55 3.5 34.4 29.02 4.38 1 3.09 6.2 11.6 15 1.7e-008 50 1 21.0215 12.25 0 10 0.0819132 -1.21068 -7.66326
 2.9 6.38 200 120 1 1.1 4 0.55 3.5 34.4 29.02 4.38 1 3.09 6.2 11.6 15 1.7e-008 50 1 21.0215 12.25 0 10 0.163826 -2.30271 -7.18567
 2.9 6.38 200 120 1 1.1 4 0.55 3.5 34.4 29.02 4.38 1 3.09 6.2 11.6 15 1.7e-008 50 1 21.0215 12.25 0 10 0.245739 -3.22112 -6.45713
 2.9 6.38 200 120 1 1.1 4 0.55 3.5 34.4 29.02 4.38 1 3.09 6.2 11.6 15 1.7e-008 50 1 21.0215 12.25 0 10 0.327653 -3.87984 -5.53591
 2.9 6.38 200 120 1 1.1 4 0.55 3.5 34.4 29.02 4.38 1 3.09 6.2 11.6 15 1.7e-008 50 1 21.0215 12.25 0 10 0.409566 -4.25522 -4.52611
 2.9 6.38 200 120 1 1.1 4 0.55 3.5 34.4 29.02 4.38 1 3.09 6.2 11.6 15 1.7e-008 50 1 21.0215 12.25 0 10 0.491479 -4.33899 -3.50263
 2.9 6.38 200 120 1 1.1 4 0.55 3.5 34.4 29.02 4.38 1 3.09 6.2 11.6 15 1.7e-008 50 1 21.0215 12.25 0 10 0.573392 -4.15316 -2.56174
 2.9 6.38 200 120 1 1.1 4 0.55 3.5 34.4 29.02 4.38 1 3.09 6.2 11.6 15 1.7e-008 50 1 21.0215 12.25 0 10 0.655305 -3.74607 -1.76027
 2.9 6.38 200 120 1 1.1 4 0.55 3.5 34.4 29.02 4.38 1 3.09 6.2 11.6 15 1.7e-008 50 1 21.0215 12.25 0 10 0.737218 -3.17065 -1.15843
 2.9 6.38 200 120 1 1.1 4 0.55 3.5 34.4 29.02 4.38 1 3.09 6.2 11.6 15 1.7e-008 50 1 21.0215 12.25 0 10 0.819132 -2.50611 -0.778269
 2.9 6.38 200 120 1 1.1 4 0.55 3.5 34.4 29.02 4.38 1 3.09 6.2 11.6 15 1.7e-008 50 1 21.0215 12.25 0 10 0.901045 -1.81473 -0.631287
 2.9 6.38 200 120 1 1.1 4 0.55 3.5 34.4 29.02 4.38 1 3.09 6.2 11.6 15 1.7e-008 50 1 21.0215 12.25 0 10 0.982958 -1.17957 -0.69995
 2.9 6.38 200 120 1 1.1 4 0.55 3.5 34.4 29.02 4.38 1 3.09 6.2 11.6 15 1.7e-008 50 1 21.0215 12.25 0 10 1.06487 -0.647943 -0.945068
 2.9 6.38 200 120 1 1.1 4 0.55 3.5 34.4 29.02 4.38 1 3.09 6.2 11.6 15 1.7e-008 50 1 21.0215 12.25 0 10 1.14678 -0.276402 -1.31779
 2.9 6.38 200 120 1 1.1 4 0.55 3.5 34.4 29.02 4.38 1 3.09 6.2 11.6 15 1.7e-008 50 1 21.0215 12.25 0 10 1.2287 -0.0734505 -1.74414
 2.9 6.38 200 120 1 1.1 4 0.55 3.5 34.4 29.02 4.38 1 3.09 6.2 11.6 15 1.7e-008 50 1 21.0215 12.25 0 10 1.31061 -0.045962 -2.17264
 2.9 6.38 200 120 1 1.1 4 0.55 3.5 34.4 29.02 4.38 1 3.09 6.2 11.6 15 1.7e-008 50 1 21.0215 12.25 0 10 1.39252 -0.159728 -2.52916
 2.9 6.38 200 120 1 1.1 4 0.55 3.5 34.4 29.02 4.38 1 3.09 6.2 11.6 15 1.7e-008 50 1 21.0215 12.25 0 10 1.47444 -0.375523 -2.79571
 2.9 6.38 200 120 1 1.1 4 0.55 3.5 34.4 29.02 4.38 1 3.09 6.2 11.6 15 1.7e-008 50 1 21.0215 12.25 0 10 1.55635 -0.644175 -2.92734
 2.9 6.38 200 120 1 1.1 4 0.55 3.5 34.4 29.02 4.38 1 3.09 6.2 11.6 15 1.7e-008 50 1 21.0215 12.25 0 10 1.63826 -0.905562 -2.95349
 2.9 6.38 200 120 1 1.1 4 0.55 3.5 34.4 29.02 4.38 1 3.09 6.2 11.6 15 1.7e-008 50 1 21.0215 12.25 0 10 1.72018 -1.13502 -2.86212
 2.9 6.38 200 120 1 1.1 4 0.55 3.5 34.4 29.02 4.38 1 3.09 6.2 11.6 15 1.7e-008 50 1 21.0215 12.25 0 10 1.80209 -1.27041 -2.71353
 2.9 6.38 200 120 1 1.1 4 0.55 3.5 34.4 29.02 4.38 1 3.09 6.2 11.6 15 1.7e-008 50 1 21.0215 12.25 0 10 1.884 -1.33861 -2.51841
 2.9 6.38 200 120 1 1.1 4 0.55 3.5 34.4 29.02 4.38 1 3.09 6.2 11.6 15 1.7e-008 50 1 21.0215 12.25 0 10 1.96592 -1.27515 -2.33518
 2.9 6.38 200 120 1 1.1 4 0.55 3.5 34.4 29.02 4.38 1 3.09 6.2 11.6 15 1.7e-008 50 1 21.0215 12.25 0 10 2.04783 -1.17018 -2.19513
 2.9 6.38 200 120 1 1.1 4 0.55 3.5 34.4 29.02 4.38 1 3.09 6.2 11.6 15 1.7e-008 75 1 21.0215 12.25 0 10 0.0532436 -0.803985 -7.82577
 2.9 6.38 200 120 1 1.1 4 0.55 3.5 34.4 29.02 4.38 1 3.09 6.2 11.6 15 1.7e-008 75 1 21.0215 12.25 0 10 0.107852 -1.57016 -7.62507
 2.9 6.38 200 120 1 1.1 4 0.55 3.5 34.4 29.02 4.38 1 3.09 6.2 11.6 15 1.7e-008 75 1 21.0215 12.25 0 10 0.162461 -2.29228 -7.269
 2.9 6.38 200 120 1 1.1 4 0.55 3.5 34.4 29.02 4.38 1 3.09 6.2 11.6 15 1.7e-008 75 1 21.0215 12.25 0 10 0.21707 -2.93653 -6.81162
 2.9 6.38 200 120 1 1.1 4 0.55 3.5 34.4 29.02 4.38 1 3.09 6.2 11.6 15 1.7e-008 75 1 21.0215 12.25 0 10 0.271679 -3.46409 -6.25694
 2.9 6.38 200 120 1 1.1 4 0.55 3.5 34.4 29.02 4.38 1 3.09 6.2 11.6 15 1.7e-008 75 1 21.0215 12.25 0 10 0.326287 -3.87945 -5.62604
 2.9 6.38 200 120 1 1.1 4 0.55 3.5 34.4 29.02 4.38 1 3.09 6.2 11.6 15 1.7e-008 75 1 21.0215 12.25 0 10 0.380896 -4.16687 -4.96058
 2.9 6.38 200 120 1 1.1 4 0.55 3.5 34.4 29.02 4.38 1 3.09 6.2 11.6 15 1.7e-008 75 1 21.0215 12.25 0 10 0.435505 -4.31689 -4.27487
 2.9 6.38 200 120 1 1.1 4 0.55 3.5 34.4 29.02 4.38 1 3.09 6.2 11.6 15 1.7e-008 75 1 21.0215 12.25 0 10 0.490114 -4.3454 -3.59721
 2.9 6.38 200 120 1 1.1 4 0.55 3.5 34.4 29.02 4.38 1 3.09 6.2 11.6 15 1.7e-008 75 1 21.0215 12.25 0 10 0.544722 -4.25142 -2.96012
 2.9 6.38 200 120 1 1.1 4 0.55 3.5 34.4 29.02 4.38 1 3.09 6.2 11.6 15 1.7e-008 75 1 21.0215 12.25 0 10 0.599331 -4.04609 -2.37333
 2.9 6.38 200 120 1 1.1 4 0.55 3.5 34.4 29.02 4.38 1 3.09 6.2 11.6 15 1.7e-008 75 1 21.0215 12.25 0 10 0.65394 -3.75482 -1.86086
 2.9 6.38 200 120 1 1.1 4 0.55 3.5 34.4 29.02 4.38 1 3.09 6.2 11.6 15 1.7e-008 75 1 21.0215 12.25 0 10 0.708549 -3.38554 -1.44065
 2.9 6.38 200 120 1 1.1 4 0.55 3.5 34.4 29.02 4.38 1 3.09 6.2 11.6 15 1.7e-008 75 1 21.0215 12.25 0 10 0.763158 -2.96227 -1.11188
 2.9 6.38 200 120 1 1.1 4 0.55 3.5 34.4 29.02 4.38 1 3.09 6.2 11.6 15 1.7e-008 75 1 21.0215 12.25 0 10 0.817766 -2.51312 -0.889645
 2.9 6.38 200 120 1 1.1 4 0.55 3.5 34.4 29.02 4.38 1 3.09 6.2 11.6 15 1.7e-008 75 1 21.0215 12.25 0 10 0.872375 -2.04827 -0.774094
 2.9 6.38 200 120 1 1.1 4 0.55 3.5 34.4 29.02 4.38 1 3.09 6.2 11.6 15 1.7e-008 75 1 21.0215 12.25 0 10 0.926984 -1.5975 -0.752397
 2.9 6.38 200 120 1 1.1 4 0.55 3.5 34.4 29.02 4.38 1 3.09 6.2 11.6 15 1.7e-008 75 1 21.0215 12.25 0 10 0.981593 -1.1831 -0.82941
 2.9 6.38 200 120 1 1.1 4 0.55 3.5 34.4 29.02 4.38 1 3.09 6.2 11.6 15 1.7e-008 75 1 21.0215 12.25 0 10 1.0362 -0.810168 -0.986367
 2.9 6.38 200 120 1 1.1 4 0.55 3.5 34.4 29.02 4.38 1 3.09 6.2 11.6 15 1.7e-008 75 1 21.0215 12.25 0 10 1.09081 -0.506636 -1.20147
 2.9 6.38 200 120 1 1.1 4 0.55 3.5 34.4 29.02 4.38 1 3.09 6.2 11.6 15 1.7e-008 75 1 21.0215 12.25 0 10 1.14542 -0.278273 -1.47251
 2.9 6.38 200 120 1 1.1 4 0.55 3.5 34.4 29.02 4.38 1 3.09 6.2 11.6 15 1.7e-008 75 1 21.0215 12.25 0 10 1.20003 -0.118916 -1.76538
 2.9 6.38 200 120 1 1.1 4 0.55 3.5 34.4 29.02 4.38 1 3.09 6.2 11.6 15 1.7e-008 75 1 21.0215 12.25 0 10 1.25464 -0.0488933 -2.06038
 2.9 6.38 200 120 1 1.1 4 0.55 3.5 34.4 29.02 4.38 1 3.09 6.2 11.6 15 1.7e-008 75 1 21.0215 12.25 0 10 1.30925 -0.0491643 -2.35679
 2.9 6.38 200 120 1 1.1 4 0.55 3.5 34.4 29.02 4.38 1 3.09 6.2 11.6 15 1.7e-008 75 1 21.0215 12.25 0 10 1.36385 -0.104634 -2.6132
 2.9 6.38 200 120 1 1.1 4 0.55 3.5 34.4 29.02 4.38 1 3.09 6.2 11.6 15 1.7e-008 100 1 21.0215 12.25 0 10 0.0389087 -0.600583 -7.84593
 2.9 6.38 200 120 1 1.1 4 0.55 3.5 34.4 29.02 4.38 1 3.09 6.2 11.6 15 1.7e-008 100 1 21.0215 12.25 0 10 0.0798653 -1.184 -7.75604
 2.9 6.38 200 120 1 1.1 4 0.55 3.5 34.4 29.02 4.38 1 3.09 6.2 11.6 15 1.7e-008 100 1 21.0215 12.25 0 10 0.120822 -1.74221 -7.55129
 2.9 6.38 200 120 1 1.1 4 0.55 3.5 34.4 29.02 4.38 1 3.09 6.2 11.6 15 1.7e-008 100 1 21.0215 12.25 0 10 0.161778 -2.28437 -7.27156
 2.9 6.38 200 120 1 1.1 4 0.55 3.5 34.4 29.02 4.38 1 3.09 6.2 11.6 15 1.7e-008 100 1 21.0215 12.25 0 10 0.202735 -2.7803 -6.94161
 2.9 6.38 200 120 1 1.1 4 0.55 3.5 34.4 29.02 4.38 1 3.09 6.2 11.6 15 1.7e-008 100 1 21.0215 12.25 0 10 0.243692 -3.20732 -6.55511
 2.9 6.38 200 120 1 1.1 4 0.55 3.5 34.4 29.02 4.38 1 3.09 6.2 11.6 15 1.7e-008 100 1 21.0215 12.25 0 10 0.284648 -3.57137 -6.11118
 2.9 6.38 200 120 1 1.1 4 0.55 3.5 34.4 29.02 4.38 1 3.09 6.2 11.6 15 1.7e-008 100 1 21.0215 12.25 0 10 0.325605 -3.87603 -5.63283
 2.9 6.38 200 120 1 1.1 4 0.55 3.5 34.4 29.02 4.38 1 3.09 6.2 11.6 15 1.7e-008 100 1 21.0215 12.25 0 10 0.366561 -4.10635 -5.13871
 2.9 6.38 200 120 1 1.1 4 0.55 3.5 34.4 29.02 4.38 1 3.09 6.2 11.6 15 1.7e-008 100 1 21.0215 12.25 0 10 0.407518 -4.25492 -4.62901
 2.9 6.38 200 120 1 1.1 4 0.55 3.5 34.4 29.02 4.38 1 3.09 6.2 11.6 15 1.7e-008 100 1 21.0215 12.25 0 10 0.448475 -4.33332 -4.11025
 2.9 6.38 200 120 1 1.1 4 0.55 3.5 34.4 29.02 4.38 1 3.09 6.2 11.6 15 1.7e-008 100 1 21.0215 12.25 0 10 0.489431 -4.34724 -3.6045
 2.9 6.38 200 120 1 1.1 4 0.55 3.5 34.4 29.02 4.38 1 3.09 6.2 11.6 15 1.7e-008 100 1 21.0215 12.25 0 10 0.530388 -4.28884 -3.12445
 2.9 6.38 200 120 1 1.1 4 0.55 3.5 34.4 29.02 4.38 1 3.09 6.2 11.6 15 1.7e-008 100 1 21.0215 12.25 0 10 0.571344 -4.16156 -2.66762
 2.9 6.38 200 120 1 1.1 4 0.55 3.5 34.4 29.02 4.38 1 3.09 6.2 11.6 15 1.7e-008 100 1 21.0215 12.25 0 10 0.612301 -3.98352 -2.24172
 2.9 6.38 200 120 1 1.1 4 0.55 3.5 34.4 29.02 4.38 1 3.09 6.2 11.6 15 1.7e-008 100 1 21.0215 12.25 0 10 0.653257 -3.76115 -1.86615
 2.9 6.38 200 120 1 1.1 4 0.55 3.5 34.4 29.02 4.38 1 3.09 6.2 11.6 15 1.7e-008 100 1 21.0215 12.25 0 10 0.694214 -3.48961 -1.54469
 2.9 6.38 200 120 1 1.1 4 0.55 3.5 34.4 29.02 4.38 1 3.09 6.2 11.6 15 1.7e-008 100 1 21.0215 12.25 0 10 0.735171 -3.18082 -1.26854
 2.9 6.38 200 120 1 1.1 4 0.55 3.5 34.4 29.02 4.38 1 3.09 6.2 11.6 15 1.7e-008 100 1 21.0215 12.25 0 10 0.776127 -2.85758 -1.04571
 2.9 6.38 200 120 1 1.1 4 0.55 3.5 34.4 29.02 4.38 1 3.09 6.2 11.6 15 1.7e-008 100 1 21.0215 12.25 0 10 0.817084 -2.52238 -0.892132
 2.9 6.38 200 120 1 1.1 4 0.55 3.5 34.4 29.02 4.38 1 3.09 6.2 11.6 15 1.7e-008 100 1 21.0215 12.25 0 10 0.85804 -2.16971 -0.799152
 2.9 6.38 200 120 1 1.1 4 0.55 3.5 34.4 29.02 4.38 1 3.09 6.2 11.6 15 1.7e-008 100 1 21.0215 12.25 0 10 0.898997 -1.82003 -0.750186
 2.9 6.38 200 120 1 1.1 4 0.55 3.5 34.4 29.02 4.38 1 3.09 6.2 11.6 15 1.7e-008 100 1 21.0215 12.25 0 10 0.939953 -1.49786 -0.756775
 2.9 6.38 200 120 1 1.1 4 0.55 3.5 34.4 29.02 4.38 1 3.09 6.2 11.6 15 1.7e-008 100 1 21.0215 12.25 0 10 0.98091 -1.19364 -0.830917
 2.9 6.38 200 120 1 1.1 4 0.55 3.5 34.4 29.02 4.38 1 3.09 6.2 11.6 15 1.7e-008 100 1 21.0215 12.25 0 10 1.02187 -0.898456 -0.945512
 2.9 6.38 200 120 1 1.1 4 0.55 3.5 34.4 29.02 4.38 1 3.09 6.2 11.6 15 1.7e-008 100 1 21.0215 12.25 0 10 1.02391 -0.893482 -0.952601

File: BPMstripline_60mm_scaled.dat
 sc Dstrippipe Lconnect Lpipe Lstrip M Rbeam Rbpm Rconn Riso1 Rpipe Rstrip Strip WStrip Xcurved Xstraight alfa angle beam_charge beam_sigma modes tap transStrip xbeam ybeam  Freq[GHz] Imp_Real[Ohm] Imp_Imag[Ohm]
 1 2.9 6.38 200 120 1 1.1 4 0.55 3.5 34.4 29.02 4.38 1 3.09 6.2 11.6 15 1.7e-008 50 1 21.0215 12.25 0 10 0 0 -7.95143
 1 2.9 6.38 200 120 1 1.1 4 0.55 3.5 34.4 29.02 4.38 1 3.09 6.2 11.6 15 1.7e-008 50 1 21.0215 12.25 0 10 0.0819132 -1.21067 -7.66326
 1 2.9 6.38 200 120 1 1.1 4 0.55 3.5 34.4 29.02 4.38 1 3.09 6.2 11.6 15 1.7e-008 50 1 21.0215 12.25 0 10 0.163826 -2.30272 -7.18567
 1 2.9 6.38 200 120 1 1.1 4 0.55 3.5 34.4 29.02 4.38 1 3.09 6.2 11.6 15 1.7e-008 50 1 21.0215 12.25 0 10 0.245739 -3.22112 -6.45713
 1 2.9 6.38 200 120 1 1.1 4 0.55 3.5 34.4 29.02 4.38 1 3.09 6.2 11.6 15 1.7e-008 50 1 21.0215 12.25 0 10 0.327653 -3.87984 -5.53591
 1 2.9 6.38 200 120 1 1.1 4 0.55 3.5 34.4 29.02 4.38 1 3.09 6.2 11.6 15 1.7e-008 50 1 21.0215 12.25 0 10 0.409566 -4.25522 -4.52611
 1 2.9 6.38 200 120 1 1.1 4 0.55 3.5 34.4 29.02 4.38 1 3.09 6.2 11.6 15 1.7e-008 50 1 21.0215 12.25 0 10 0.491479 -4.339 -3.50263
 1 2.9 6.38 200 120 1 1.1 4 0.55 3.5 34.4 29.02 4.38 1 3.09 6.2 11.6 15 1.7e-008 50 1 21.0215 12.25 0 10 0.573392 -4.15316 -2.56174
 1 2.9 6.38 200 120 1 1.1 4 0.55 3.5 34.4 29.02 4.38 1 3.09 6.2 11.6 15 1.7e-008 50 1 21.0215 12.25 0 10 0.655305 -3.74607 -1.76027
 1 2.9 6.38 200 120 1 1.1 4 0.55 3.5 34.4 29.02 4.38 1 3.09 6.2 11.6 15 1.7e-008 50 1 21.0215 12.25 0 10 0.737218 -3.17065 -1.15843
 1 2.9 6.38 200 120 1 1.1 4 0.55 3.5 34.4 29.02 4.38 1 3.09 6.2 11.6 15 1.7e-008 50 1 21.0215 12.25 0 10 0.819132 -2.50611 -0.77827
 1 2.9 6.38 200 120 1 1.1 4 0.55 3.5 34.4 29.02 4.38 1 3.09 6.2 11.6 15 1.7e-008 50 1 21.0215 12.25 0 10 0.901045 -1.81473 -0.631287
 1 2.9 6.38 200 120 1 1.1 4 0.55 3.5 34.4 29.02 4.38 1 3.09 6.2 11.6 15 1.7e-008 50 1 21.0215 12.25 0 10 0.982958 -1.17957 -0.69995
 1 2.9 6.38 200 120 1 1.1 4 0.55 3.5 34.4 29.02 4.38 1 3.09 6.2 11.6 15 1.7e-008 50 1 21.0215 12.25 0 10 1.06487 -0.647943 -0.945067
 1 2.9 6.38 200 120 1 1.1 4 0.55 3.5 34.4 29.02 4.38 1 3.09 6.2 11.6 15 1.7e-008 50 1 21.0215 12.25 0 10 1.14678 -0.276401 -1.31779
 1 2.9 6.38 200 120 1 1.1 4 0.55 3.5 34.4 29.02 4.38 1 3.09 6.2 11.6 15 1.7e-008 50 1 21.0215 12.25 0 10 1.2287 -0.0734514 -1.74414
 1 2.9 6.38 200 120 1 1.1 4 0.55 3.5 34.4 29.02 4.38 1 3.09 6.2 11.6 15 1.7e-008 50 1 21.0215 12.25 0 10 1.31061 -0.0459611 -2.17264
 1 2.9 6.38 200 120 1 1.1 4 0.55 3.5 34.4 29.02 4.38 1 3.09 6.2 11.6 15 1.7e-008 50 1 21.0215 12.25 0 10 1.39252 -0.159729 -2.52916
 1 2.9 6.38 200 120 1 1.1 4 0.55 3.5 34.4 29.02 4.38 1 3.09 6.2 11.6 15 1.7e-008 50 1 21.0215 12.25 0 10 1.47444 -0.375522 -2.79571
 1 2.9 6.38 200 120 1 1.1 4 0.55 3.5 34.4 29.02 4.38 1 3.09 6.2 11.6 15 1.7e-008 50 1 21.0215 12.25 0 10 1.55635 -0.644176 -2.92734
 1 2.9 6.38 200 120 1 1.1 4 0.55 3.5 34.4 29.02 4.38 1 3.09 6.2 11.6 15 1.7e-008 50 1 21.0215 12.25 0 10 1.63826 -0.905561 -2.95348
 1 2.9 6.38 200 120 1 1.1 4 0.55 3.5 34.4 29.02 4.38 1 3.09 6.2 11.6 15 1.7e-008 50 1 21.0215 12.25 0 10 1.72018 -1.13502 -2.86213
 1 2.9 6.38 200 120 1 1.1 4 0.55 3.5 34.4 29.02 4.38 1 3.09 6.2 11.6 15 1.7e-008 50 1 21.0215 12.25 0 10 1.80209 -1.27041 -2.71353
 1 2.9 6.38 200 120 1 1.1 4 0.55 3.5 34.4 29.02 4.38 1 3.09 6.2 11.6 15 1.7e-008 50 1 21.0215 12.25 0 10 1.884 -1.33861 -2.51841
 1 2.9 6.38 200 120 1 1.1 4 0.55 3.5 34.4 29.02 4.38 1 3.09 6.2 11.6 15 1.7e-008 50 1 21.0215 12.25 0 10 1.96592 -1.27515 -2.33517
 1 2.9 6.38 200 120 1 1.1 4 0.55 3.5 34.4 29.02 4.38 1 3.09 6.2 11.6 15 1.7e-008 50 1 21.0215 12.25 0 10 2.04783 -1.17018 -2.19513
 1 2.9 6.38 200 120 1 1.1 4 0.55 3.5 34.4 29.02 4.38 1 3.09 6.2 11.6 15 1.7e-008 75 1 21.0215 12.25 0 10 0.0532436 -0.803985 -7.82577
 1 2.9 6.38 200 120 1 1.1 4 0.55 3.5 34.4 29.02 4.38 1 3.09 6.2 11.6 15 1.7e-008 75 1 21.0215 12.25 0 10 0.107852 -1.57016 -7.62507
 1 2.9 6.38 200 120 1 1.1 4 0.55 3.5 34.4 29.02 4.38 1 3.09 6.2 11.6 15 1.7e-008 75 1 21.0215 12.25 0 10 0.162461 -2.29228 -7.269
 1 2.9 6.38 200 120 1 1.1 4 0.55 3.5 34.4 29.02 4.38 1 3.09 6.2 11.6 15 1.7e-008 75 1 21.0215 12.25 0 10 0.21707 -2.93653 -6.81162
 1 2.9 6.38 200 120 1 1.1 4 0.55 3.5 34.4 29.02 4.38 1 3.09 6.2 11.6 15 1.7e-008 75 1 21.0215 12.25 0 10 0.271679 -3.46409 -6.25694
 1 2.9 6.38 200 120 1 1.1 4 0.55 3.5 34.4 29.02 4.38 1 3.09 6.2 11.6 15 1.7e-008 75 1 21.0215 12.25 0 10 0.326287 -3.87945 -5.62604
 1 2.9 6.38 200 120 1 1.1 4 0.55 3.5 34.4 29.02 4.38 1 3.09 6.2 11.6 15 1.7e-008 75 1 21.0215 12.25 0 10 0.380896 -4.16687 -4.96058
 1 2.9 6.38 200 120 1 1.1 4 0.55 3.5 34.4 29.02 4.38 1 3.09 6.2 11.6 15 1.7e-008 75 1 21.0215 12.25 0 10 0.435505 -4.31689 -4.27487
 1 2.9 6.38 200 120 1 1.1 4 0.55 3.5 34.4 29.02 4.38 1 3.09 6.2 11.6 15 1.7e-008 75 1 21.0215 12.25 0 10 0.490114 -4.3454 -3.59721
 1 2.9 6.38 200 120 1 1.1 4 0.55 3.5 34.4 29.02 4.38 1 3.09 6.2 11.6 15 1.7e-008 75 1 21.0215 12.25 0 10 0.544722 -4.25142 -2.96012
 1 2.9 6.38 200 120 1 1.1 4 0.55 3.5 34.4 29.02 4.38 1 3.09 6.2 11.6 15 1.7e-008 75 1 21.0215 12.25 0 10 0.599331 -4.04609 -2.37333
 1 2.9 6.38 200 120 1 1.1 4 0.55 3.5 34.4 29.02 4.38 1 3.09 6.2 11.6 15 1.7e-008 75 1 21.0215 12.25 0 10 0.65394 -3.75482 -1.86086
 1 2.9 6.38 200 120 1 1.1 4 0.55 3.5 34.4 29.02 4.38 1 3.09 6.2 11.6 15 1.7e-008 75 1 21.0215 12.25 0 10 0.708549 -3.38554 -1.44065
 1 2.9 6.38 200 120 1 1.1 4 0.55 3.5 34.4 29.02 4.38 1 3.09 6.2 11.6 15 1.7e-008 75 1 21.0215 12.25 0 10 0.763158 -2.96227 -1.11188
 1 2.9 6.38 200 120 1 1.1 4 0.55 3.5 34.4 29.02 4.38 1 3.09 6.2 11.6 15 1.7e-008 75 1 21.0215 12.25 0 10 0.817766 -2.51312 -0.889645
 1 2.9 6.38 200 120 1 1.1 4 0.55 3.5 34.4 29.02 4.38 1 3.09 6.2 11.6 15 1.7e-008 75 1 21.0215 12.25 0 10 0.872375 -2.04827 -0.774094
 1 2.9 6.38 200 120 1 1.1 4 0.55 3.5 34.4 29.02 4.38 1 3.09 6.2 11.6 15 1.7e-008 75 1 21.0215 12.25 0 10 0.926984 -1.5975 -0.752397
 1 2.9 6.38 200 120 1 1.1 4 0.55 3.5 34.4 29.02 4.38 1 3.09 6.2 11.6 15 1.7e-008 75 1 21.0215 12.25 0 10 0.981593 -1.1831 -0.82941
 1 2.9 6.38 200 120 1 1.1 4 0.55 3.5 34.4 29.02 4.38 1 3.09 6.2 11.6 15 1.7e-008 75 1 21.0215 12.25 0 10 1.0362 -0.810168 -0.986367
 1 2.9 6.38 200 120 1 1.1 4 0.55 3.5 34.4 29.02 4.38 1 3.09 6.2 11.6 15 1.7e-008 75 1 21.0215 12.25 0 10 1.09081 -0.506636 -1.20147
 1 2.9 6.38 200 120 1 1.1 4 0.55 3.5 34.4 29.02 4.38 1 3.09 6.2 11.6 15 1.7e-008 75 1 21.0215 12.25 0 10 1.14542 -0.278273 -1.47251
 1 2.9 6.38 200 120 1 1.1 4 0.55 3.5 34.4 29.02 4.38 1 3.09 6.2 11.6 15 1.7e-008 75 1 21.0215 12.25 0 10 1.20003 -0.118916 -1.76538
 1 2.9 6.38 200 120 1 1.1 4 0.55 3.5 34.4 29.02 4.38 1 3.09 6.2 11.6 15 1.7e-008 75 1 21.0215 12.25 0 10 1.25464 -0.0488933 -2.06038
 1 2.9 6.38 200 120 1 1.1 4 0.55 3.5 34.4 29.02 4.38 1 3.09 6.2 11.6 15 1.7e-008 75 1 21.0215 12.25 0 10 1.30925 -0.0491643 -2.35679
 1 2.9 6.38 200 120 1 1.1 4 0.55 3.5 34.4 29.02 4.38 1 3.09 6.2 11.6 15 1.7e-008 75 1 21.0215 12.25 0 10 1.36385 -0.104634 -2.6132
 1 2.9 6.38 200 120 1 1.1 4 0.55 3.5 34.4 29.02 4.38 1 3.09 6.2 11.6 15 1.7e-008 100 1 21.0215 12.25 0 10 0.0389087 -0.600583 -7.84593
 1 2.9 6.38 200 120 1 1.1 4 0.55 3.5 34.4 29.02 4.38 1 3.09 6.2 11.6 15 1.7e-008 100 1 21.0215 12.25 0 10 0.0798653 -1.184 -7.75604
 1 2.9 6.38 200 120 1 1.1 4 0.55 3.5 34.4 29.02 4.38 1 3.09 6.2 11.6 15 1.7e-008 100 1 21.0215 12.25 0 10 0.120822 -1.74221 -7.55129
 1 2.9 6.38 200 120 1 1.1 4 0.55 3.5 34.4 29.02 4.38 1 3.09 6.2 11.6 15 1.7e-008 100 1 21.0215 12.25 0 10 0.161778 -2.28437 -7.27156
 1 2.9 6.38 200 120 1 1.1 4 0.55 3.5 34.4 29.02 4.38 1 3.09 6.2 11.6 15 1.7e-008 100 1 21.0215 12.25 0 10 0.202735 -2.7803 -6.94161
 1 2.9 6.38 200 120 1 1.1 4 0.55 3.5 34.4 29.02 4.38 1 3.09 6.2 11.6 15 1.7e-008 100 1 21.0215 12.25 0 10 0.243692 -3.20732 -6.55511
 1 2.9 6.38 200 120 1 1.1 4 0.55 3.5 34.4 29.02 4.38 1 3.09 6.2 11.6 15 1.7e-008 100 1 21.0215 12.25 0 10 0.284648 -3.57137 -6.11118
 1 2.9 6.38 200 120 1 1.1 4 0.55 3.5 34.4 29.02 4.38 1 3.09 6.2 11.6 15 1.7e-008 100 1 21.0215 12.25 0 10 0.325605 -3.87603 -5.63283
 1 2.9 6.38 200 120 1 1.1 4 0.55 3.5 34.4 29.02 4.38 1 3.09 6.2 11.6 15 1.7e-008 100 1 21.0215 12.25 0 10 0.366561 -4.10635 -5.13871
 1 2.9 6.38 200 120 1 1.1 4 0.55 3.5 34.4 29.02 4.38 1 3.09 6.2 11.6 15 1.7e-008 100 1 21.0215 12.25 0 10 0.407518 -4.25492 -4.62901
 1 2.9 6.38 200 120 1 1.1 4 0.55 3.5 34.4 29.02 4.38 1 3.09 6.2 11.6 15 1.7e-008 100 1 21.0215 12.25 0 10 0.448475 -4.33332 -4.11025
 1 2.9 6.38 200 120 1 1.1 4 0.55 3.5 34.4 29.02 4.38 1 3.09 6.2 11.6 15 1.7e-008 100 1 21.0215 12.25 0 10 0.489431 -4.34724 -3.6045
 1 2.9 6.38 200 120 1 1.1 4 0.55 3.5 34.4 29.02 4.38 1 3.09 6.2 11.6 15 1.7e-008 100 1 21.0215 12.25 0 10 0.530388 -4.28884 -3.12445
 1 2.9 6.38 200 120 1 1.1 4 0.55 3.5 34.4 29.02 4.38 1 3.09 6.2 11.6 15 1.7e-008 100 1 21.0215 12.25 0 10 0.571344 -4.16156 -2.66762
 1 2.9 6.38 200 120 1 1.1 4 0.55 3.5 34.4 29.02 4.38 1 3.09 6.2 11.6 15 1.7e-008 100 1 21.0215 12.25 0 10 0.612301 -3.98352 -2.24172
 1 2.9 6.38 200 120 1 1.1 4 0.55 3.5 34.4 29.02 4.38 1 3.09 6.2 11.6 15 1.7e-008 100 1 21.0215 12.25 0 10 0.653257 -3.76115 -1.86615
 1 2.9 6.38 200 120 1 1.1 4 0.55 3.5 34.4 29.02 4.38 1 3.09 6.2 11.6 15 1.7e-008 100 1 21.0215 12.25 0 10 0.694214 -3.48961 -1.54469
 1 2.9 6.38 200 120 1 1.1 4 0.55 3.5 34.4 29.02 4.38 1 3.09 6.2 11.6 15 1.7e-008 100 1 21.0215 12.25 0 10 0.735171 -3.18082 -1.26854
 1 2.9 6.38 200 120 1 1.1 4 0.55 3.5 34.4 29.02 4.38 1 3.09 6.2 11.6 15 1.7e-008 100 1 21.0215 12.25 0 10 0.776127 -2.85758 -1.04571
 1 2.9 6.38 200 120 1 1.1 4 0.55 3.5 34.4 29.02 4.38 1 3.09 6.2 11.6 15 1.7e-008 100 1 21.0215 12.25 0 10 0.817084 -2.52238 -0.892132
 1 2.9 6.38 200 120 1 1.1 4 0.55 3.5 34.4 29.02 4.38 1 3.09 6.2 11.6 15 1.7e-008 100 1 21.0215 12.25 0 10 0.85804 -2.16971 -0.799152
 1 2.9 6.38 200 120 1 1.1 4 0.55 3.5 34.4 29.02 4.38 1 3.09 6.2 11.6 15 1.7e-008 100 1 21.0215 12.25 0 10 0.898997 -1.82003 -0.750186
 1 2.9 6.38 200 120 1 1.1 4 0.55 3.5 34.4 29.02 4.38 1 3.09 6.2 11.6 15 1.7e-008 100 1 21.0215 12.25 0 10 0.939953 -1.49786 -0.756775
 1 2.9 6.38 200 120 1 1.1 4 0.55 3.5 34.4 29.02 4.38 1 3.09 6.2 11.6 15 1.7e-008 100 1 21.0215 12.25 0 10 0.98091 -1.19364 -0.830917
 1 2.9 6.38 200 120 1 1.1 4 0.55 3.5 34.4 29.02 4.38 1 3.09 6.2 11.6 15 1.7e-008 100 1 21.0215 12.25 0 10 1.02187 -0.898456 -0.945512
 1 2.9 6.38 200 120 1 1.1 4 0.55 3.5 34.4 29.02 4.38 1 3.09 6.2 11.6 15 1.7e-008 100 1 21.0215 12.25 0 10 1.02391 -0.893482 -0.952601