Folder: CloneLHC_IW_model/LHC_elements/from_Benoit_BPMs (part 3)

File: BPMstripline_140mm.dat
 Dstrippipe Lconnect Lpipe Lstrip M Rbeam Rbpm Rconn Riso1 Rpipe Rstrip Strip WStrip Xcurved Xstraight alfa angle beam_charge beam_sigma modes tap transStrip xbeam ybeam Freq[GHz] Imp_Real[Ohm] Imp_Imag[Ohm]
 2.9 6.38 200 120 1 1.1 4 0.55 3.5 74.4 69.02 4.38 1 3.09 6.2 11.6 15 1.7e-008 50 1 21.0215 12.25 0 10 0 0 -0.390721
 2.9 6.38 200 120 1 1.1 4 0.55 3.5 74.4 69.02 4.38 1 3.09 6.2 11.6 15 1.7e-008 50 1 21.0215 12.25 0 10 0.0819132 -0.061964 -0.410801
 2.9 6.38 200 120 1 1.1 4 0.55 3.5 74.4 69.02 4.38 1 3.09 6.2 11.6 15 1.7e-008 50 1 21.0215 12.25 0 10 0.163826 -0.122521 -0.385237
 2.9 6.38 200 120 1 1.1 4 0.55 3.5 74.4 69.02 4.38 1 3.09 6.2 11.6 15 1.7e-008 50 1 21.0215 12.25 0 10 0.245739 -0.170423 -0.349409
 2.9 6.38 200 120 1 1.1 4 0.55 3.5 74.4 69.02 4.38 1 3.09 6.2 11.6 15 1.7e-008 50 1 21.0215 12.25 0 10 0.327653 -0.20714 -0.299868
 2.9 6.38 200 120 1 1.1 4 0.55 3.5 74.4 69.02 4.38 1 3.09 6.2 11.6 15 1.7e-008 50 1 21.0215 12.25 0 10 0.409566 -0.227332 -0.250091
 2.9 6.38 200 120 1 1.1 4 0.55 3.5 74.4 69.02 4.38 1 3.09 6.2 11.6 15 1.7e-008 50 1 21.0215 12.25 0 10 0.491479 -0.233985 -0.19324
 2.9 6.38 200 120 1 1.1 4 0.55 3.5 74.4 69.02 4.38 1 3.09 6.2 11.6 15 1.7e-008 50 1 21.0215 12.25 0 10 0.573392 -0.222537 -0.148724
 2.9 6.38 200 120 1 1.1 4 0.55 3.5 74.4 69.02 4.38 1 3.09 6.2 11.6 15 1.7e-008 50 1 21.0215 12.25 0 10 0.655305 -0.204435 -0.102315
 2.9 6.38 200 120 1 1.1 4 0.55 3.5 74.4 69.02 4.38 1 3.09 6.2 11.6 15 1.7e-008 50 1 21.0215 12.25 0 10 0.737218 -0.167446 -0.0791875
 2.9 6.38 200 120 1 1.1 4 0.55 3.5 74.4 69.02 4.38 1 3.09 6.2 11.6 15 1.7e-008 50 1 21.0215 12.25 0 10 0.819132 -0.140817 -0.0559778
 2.9 6.38 200 120 1 1.1 4 0.55 3.5 74.4 69.02 4.38 1 3.09 6.2 11.6 15 1.7e-008 50 1 21.0215 12.25 0 10 0.901045 -0.0887187 -0.0612318
 2.9 6.38 200 120 1 1.1 4 0.55 3.5 74.4 69.02 4.38 1 3.09 6.2 11.6 15 1.7e-008 50 1 21.0215 12.25 0 10 0.982958 -0.0786211 -0.0664635
 2.9 6.38 200 120 1 1.1 4 0.55 3.5 74.4 69.02 4.38 1 3.09 6.2 11.6 15 1.7e-008 50 1 21.0215 12.25 0 10 1.06487 -0.00812709 -0.0926177
 2.9 6.38 200 120 1 1.1 4 0.55 3.5 74.4 69.02 4.38 1 3.09 6.2 11.6 15 1.7e-008 50 1 21.0215 12.25 0 10 1.14678 -0.067204 -0.152088
 2.9 6.38 200 120 1 1.1 4 0.55 3.5 74.4 69.02 4.38 1 3.09 6.2 11.6 15 1.7e-008 50 1 21.0215 12.25 0 10 1.2287 -0.691403 0.312298
 2.9 6.38 200 120 1 1.1 4 0.55 3.5 74.4 69.02 4.38 1 3.09 6.2 11.6 15 1.7e-008 50 1 21.0215 12.25 0 10 1.31061 -0.217564 0.0211397
 2.9 6.38 200 120 1 1.1 4 0.55 3.5 74.4 69.02 4.38 1 3.09 6.2 11.6 15 1.7e-008 50 1 21.0215 12.25 0 10 1.39252 -0.151549 -0.131938
 2.9 6.38 200 120 1 1.1 4 0.55 3.5 74.4 69.02 4.38 1 3.09 6.2 11.6 15 1.7e-008 50 1 21.0215 12.25 0 10 1.47444 -0.0930498 -0.0759903
 2.9 6.38 200 120 1 1.1 4 0.55 3.5 74.4 69.02 4.38 1 3.09 6.2 11.6 15 1.7e-008 50 1 21.0215 12.25 0 10 1.55635 -0.109329 -0.151584
 2.9 6.38 200 120 1 1.1 4 0.55 3.5 74.4 69.02 4.38 1 3.09 6.2 11.6 15 1.7e-008 50 1 21.0215 12.25 0 10 1.63826 -0.0655582 -0.118555
 2.9 6.38 200 120 1 1.1 4 0.55 3.5 74.4 69.02 4.38 1 3.09 6.2 11.6 15 1.7e-008 50 1 21.0215 12.25 0 10 1.72018 -0.136061 -0.182204
 2.9 6.38 200 120 1 1.1 4 0.55 3.5 74.4 69.02 4.38 1 3.09 6.2 11.6 15 1.7e-008 50 1 21.0215 12.25 0 10 1.80209 -0.163457 -0.111257
 2.9 6.38 200 120 1 1.1 4 0.55 3.5 74.4 69.02 4.38 1 3.09 6.2 11.6 15 1.7e-008 50 1 21.0215 12.25 0 10 1.884 -0.148897 -0.122386
 2.9 6.38 200 120 1 1.1 4 0.55 3.5 74.4 69.02 4.38 1 3.09 6.2 11.6 15 1.7e-008 50 1 21.0215 12.25 0 10 1.96592 -0.158101 -0.0473332
 2.9 6.38 200 120 1 1.1 4 0.55 3.5 74.4 69.02 4.38 1 3.09 6.2 11.6 15 1.7e-008 50 1 21.0215 12.25 0 10 2.04783 -0.0824304 -0.0899682
 2.9 6.38 200 120 1 1.1 4 0.55 3.5 74.4 69.02 4.38 1 3.09 6.2 11.6 15 1.7e-008 75 1 21.0215 12.25 0 10 0.0532436 -0.0372435 -0.413901
 2.9 6.38 200 120 1 1.1 4 0.55 3.5 74.4 69.02 4.38 1 3.09 6.2 11.6 15 1.7e-008 75 1 21.0215 12.25 0 10 0.107852 -0.0830591 -0.398783
 2.9 6.38 200 120 1 1.1 4 0.55 3.5 74.4 69.02 4.38 1 3.09 6.2 11.6 15 1.7e-008 75 1 21.0215 12.25 0 10 0.162461 -0.121912 -0.384677
 2.9 6.38 200 120 1 1.1 4 0.55 3.5 74.4 69.02 4.38 1 3.09 6.2 11.6 15 1.7e-008 75 1 21.0215 12.25 0 10 0.21707 -0.15378 -0.36048
 2.9 6.38 200 120 1 1.1 4 0.55 3.5 74.4 69.02 4.38 1 3.09 6.2 11.6 15 1.7e-008 75 1 21.0215 12.25 0 10 0.271679 -0.183863 -0.331171
 2.9 6.38 200 120 1 1.1 4 0.55 3.5 74.4 69.02 4.38 1 3.09 6.2 11.6 15 1.7e-008 75 1 21.0215 12.25 0 10 0.326287 -0.206615 -0.300503
 2.9 6.38 200 120 1 1.1 4 0.55 3.5 74.4 69.02 4.38 1 3.09 6.2 11.6 15 1.7e-008 75 1 21.0215 12.25 0 10 0.380896 -0.221529 -0.265789
 2.9 6.38 200 120 1 1.1 4 0.55 3.5 74.4 69.02 4.38 1 3.09 6.2 11.6 15 1.7e-008 75 1 21.0215 12.25 0 10 0.435505 -0.231134 -0.229878
 2.9 6.38 200 120 1 1.1 4 0.55 3.5 74.4 69.02 4.38 1 3.09 6.2 11.6 15 1.7e-008 75 1 21.0215 12.25 0 10 0.490114 -0.233597 -0.195838
 2.9 6.38 200 120 1 1.1 4 0.55 3.5 74.4 69.02 4.38 1 3.09 6.2 11.6 15 1.7e-008 75 1 21.0215 12.25 0 10 0.544722 -0.228268 -0.163065
 2.9 6.38 200 120 1 1.1 4 0.55 3.5 74.4 69.02 4.38 1 3.09 6.2 11.6 15 1.7e-008 75 1 21.0215 12.25 0 10 0.599331 -0.218013 -0.132188
 2.9 6.38 200 120 1 1.1 4 0.55 3.5 74.4 69.02 4.38 1 3.09 6.2 11.6 15 1.7e-008 75 1 21.0215 12.25 0 10 0.65394 -0.20359 -0.107328
 2.9 6.38 200 120 1 1.1 4 0.55 3.5 74.4 69.02 4.38 1 3.09 6.2 11.6 15 1.7e-008 75 1 21.0215 12.25 0 10 0.708549 -0.18219 -0.0876493
 2.9 6.38 200 120 1 1.1 4 0.55 3.5 74.4 69.02 4.38 1 3.09 6.2 11.6 15 1.7e-008 75 1 21.0215 12.25 0 10 0.763158 -0.159625 -0.0702933
 2.9 6.38 200 120 1 1.1 4 0.55 3.5 74.4 69.02 4.38 1 3.09 6.2 11.6 15 1.7e-008 75 1 21.0215 12.25 0 10 0.817766 -0.137995 -0.0638286
 2.9 6.38 200 120 1 1.1 4 0.55 3.5 74.4 69.02 4.38 1 3.09 6.2 11.6 15 1.7e-008 75 1 21.0215 12.25 0 10 0.872375 -0.108369 -0.0631961
 2.9 6.38 200 120 1 1.1 4 0.55 3.5 74.4 69.02 4.38 1 3.09 6.2 11.6 15 1.7e-008 75 1 21.0215 12.25 0 10 0.926984 -0.0860601 -0.0604675
 2.9 6.38 200 120 1 1.1 4 0.55 3.5 74.4 69.02 4.38 1 3.09 6.2 11.6 15 1.7e-008 75 1 21.0215 12.25 0 10 0.981593 -0.0697912 -0.078614
 2.9 6.38 200 120 1 1.1 4 0.55 3.5 74.4 69.02 4.38 1 3.09 6.2 11.6 15 1.7e-008 75 1 21.0215 12.25 0 10 1.0362 -0.0337776 -0.095363
 2.9 6.38 200 120 1 1.1 4 0.55 3.5 74.4 69.02 4.38 1 3.09 6.2 11.6 15 1.7e-008 75 1 21.0215 12.25 0 10 1.09081 -0.0302546 -0.0963957
 2.9 6.38 200 120 1 1.1 4 0.55 3.5 74.4 69.02 4.38 1 3.09 6.2 11.6 15 1.7e-008 75 1 21.0215 12.25 0 10 1.14542 -0.0314841 -0.175155
 2.9 6.38 200 120 1 1.1 4 0.55 3.5 74.4 69.02 4.38 1 3.09 6.2 11.6 15 1.7e-008 75 1 21.0215 12.25 0 10 1.20003 0.155895 -0.190192
 2.9 6.38 200 120 1 1.1 4 0.55 3.5 74.4 69.02 4.38 1 3.09 6.2 11.6 15 1.7e-008 75 1 21.0215 12.25 0 10 1.25464 0.0862565 -0.42817
 2.9 6.38 200 120 1 1.1 4 0.55 3.5 74.4 69.02 4.38 1 3.09 6.2 11.6 15 1.7e-008 75 1 21.0215 12.25 0 10 1.30925 -0.245424 0.0307732
 2.9 6.38 200 120 1 1.1 4 0.55 3.5 74.4 69.02 4.38 1 3.09 6.2 11.6 15 1.7e-008 75 1 21.0215 12.25 0 10 1.36385 -0.173792 -0.125594
 2.9 6.38 200 120 1 1.1 4 0.55 3.5 74.4 69.02 4.38 1 3.09 6.2 11.6 15 1.7e-008 100 1 21.0215 12.25 0 10 0.0389087 -0.0303693 -0.413417
 2.9 6.38 200 120 1 1.1 4 0.55 3.5 74.4 69.02 4.38 1 3.09 6.2 11.6 15 1.7e-008 100 1 21.0215 12.25 0 10 0.0798653 -0.061721 -0.407394
 2.9 6.38 200 120 1 1.1 4 0.55 3.5 74.4 69.02 4.38 1 3.09 6.2 11.6 15 1.7e-008 100 1 21.0215 12.25 0 10 0.120822 -0.0919666 -0.397527
 2.9 6.38 200 120 1 1.1 4 0.55 3.5 74.4 69.02 4.38 1 3.09 6.2 11.6 15 1.7e-008 100 1 21.0215 12.25 0 10 0.161778 -0.120409 -0.384143
 2.9 6.38 200 120 1 1.1 4 0.55 3.5 74.4 69.02 4.38 1 3.09 6.2 11.6 15 1.7e-008 100 1 21.0215 12.25 0 10 0.202735 -0.146358 -0.367484
 2.9 6.38 200 120 1 1.1 4 0.55 3.5 74.4 69.02 4.38 1 3.09 6.2 11.6 15 1.7e-008 100 1 21.0215 12.25 0 10 0.243692 -0.169426 -0.34778
 2.9 6.38 200 120 1 1.1 4 0.55 3.5 74.4 69.02 4.38 1 3.09 6.2 11.6 15 1.7e-008 100 1 21.0215 12.25 0 10 0.284648 -0.189434 -0.325602
 2.9 6.38 200 120 1 1.1 4 0.55 3.5 74.4 69.02 4.38 1 3.09 6.2 11.6 15 1.7e-008 100 1 21.0215 12.25 0 10 0.325605 -0.20598 -0.301737
 2.9 6.38 200 120 1 1.1 4 0.55 3.5 74.4 69.02 4.38 1 3.09 6.2 11.6 15 1.7e-008 100 1 21.0215 12.25 0 10 0.366561 -0.218563 -0.27666
 2.9 6.38 200 120 1 1.1 4 0.55 3.5 74.4 69.02 4.38 1 3.09 6.2 11.6 15 1.7e-008 100 1 21.0215 12.25 0 10 0.407518 -0.227175 -0.250647
 2.9 6.38 200 120 1 1.1 4 0.55 3.5 74.4 69.02 4.38 1 3.09 6.2 11.6 15 1.7e-008 100 1 21.0215 12.25 0 10 0.448475 -0.232157 -0.224443
 2.9 6.38 200 120 1 1.1 4 0.55 3.5 74.4 69.02 4.38 1 3.09 6.2 11.6 15 1.7e-008 100 1 21.0215 12.25 0 10 0.489431 -0.233395 -0.199069
 2.9 6.38 200 120 1 1.1 4 0.55 3.5 74.4 69.02 4.38 1 3.09 6.2 11.6 15 1.7e-008 100 1 21.0215 12.25 0 10 0.530388 -0.230541 -0.174864
 2.9 6.38 200 120 1 1.1 4 0.55 3.5 74.4 69.02 4.38 1 3.09 6.2 11.6 15 1.7e-008 100 1 21.0215 12.25 0 10 0.571344 -0.224131 -0.151781
 2.9 6.38 200 120 1 1.1 4 0.55 3.5 74.4 69.02 4.38 1 3.09 6.2 11.6 15 1.7e-008 100 1 21.0215 12.25 0 10 0.612301 -0.215154 -0.130703
 2.9 6.38 200 120 1 1.1 4 0.55 3.5 74.4 69.02 4.38 1 3.09 6.2 11.6 15 1.7e-008 100 1 21.0215 12.25 0 10 0.653257 -0.203456 -0.112866
 2.9 6.38 200 120 1 1.1 4 0.55 3.5 74.4 69.02 4.38 1 3.09 6.2 11.6 15 1.7e-008 100 1 21.0215 12.25 0 10 0.694214 -0.188519 -0.0979372
 2.9 6.38 200 120 1 1.1 4 0.55 3.5 74.4 69.02 4.38 1 3.09 6.2 11.6 15 1.7e-008 100 1 21.0215 12.25 0 10 0.735171 -0.171761 -0.0850924
 2.9 6.38 200 120 1 1.1 4 0.55 3.5 74.4 69.02 4.38 1 3.09 6.2 11.6 15 1.7e-008 100 1 21.0215 12.25 0 10 0.776127 -0.155034 -0.0758342
 2.9 6.38 200 120 1 1.1 4 0.55 3.5 74.4 69.02 4.38 1 3.09 6.2 11.6 15 1.7e-008 100 1 21.0215 12.25 0 10 0.817084 -0.137133 -0.0719083
 2.9 6.38 200 120 1 1.1 4 0.55 3.5 74.4 69.02 4.38 1 3.09 6.2 11.6 15 1.7e-008 100 1 21.0215 12.25 0 10 0.85804 -0.116664 -0.0710026
 2.9 6.38 200 120 1 1.1 4 0.55 3.5 74.4 69.02 4.38 1 3.09 6.2 11.6 15 1.7e-008 100 1 21.0215 12.25 0 10 0.898997 -0.0974159 -0.0707805
 2.9 6.38 200 120 1 1.1 4 0.55 3.5 74.4 69.02 4.38 1 3.09 6.2 11.6 15 1.7e-008 100 1 21.0215 12.25 0 10 0.939953 -0.0826803 -0.0757742
 2.9 6.38 200 120 1 1.1 4 0.55 3.5 74.4 69.02 4.38 1 3.09 6.2 11.6 15 1.7e-008 100 1 21.0215 12.25 0 10 0.98091 -0.0663281 -0.0894242
 2.9 6.38 200 120 1 1.1 4 0.55 3.5 74.4 69.02 4.38 1 3.09 6.2 11.6 15 1.7e-008 100 1 21.0215 12.25 0 10 1.02187 -0.0442179 -0.102262
 2.9 6.38 200 120 1 1.1 4 0.55 3.5 74.4 69.02 4.38 1 3.09 6.2 11.6 15 1.7e-008 100 1 21.0215 12.25 0 10 1.02391 -0.0471931 -0.105298

File: BPMstripline_140mm_scaled.dat
 sc Dstrippipe Lconnect Lpipe Lstrip M Rbeam Rbpm Rconn Riso1 Rpipe Rstrip Strip WStrip Xcurved Xstraight alfa angle beam_charge beam_sigma modes tap transStrip xbeam ybeam  Freq[GHz] Imp_Real[Ohm] Imp_Imag[Ohm]
 2.33 2.9 6.38 200 120 1 1.1 4 0.55 3.5 34.4 29.02 4.38 1 3.09 6.2 11.6 15 1.7e-008 50 1 21.0215 12.25 0 10 0 0 -1.18812
 2.33 2.9 6.38 200 120 1 1.1 4 0.55 3.5 34.4 29.02 4.38 1 3.09 6.2 11.6 15 1.7e-008 50 1 21.0215 12.25 0 10 0.083961 0.038196 -1.065
 2.33 2.9 6.38 200 120 1 1.1 4 0.55 3.5 34.4 29.02 4.38 1 3.09 6.2 11.6 15 1.7e-008 50 1 21.0215 12.25 0 10 0.167922 -0.0598555 -1.12797
 2.33 2.9 6.38 200 120 1 1.1 4 0.55 3.5 34.4 29.02 4.38 1 3.09 6.2 11.6 15 1.7e-008 50 1 21.0215 12.25 0 10 0.251883 0.0589563 -1.16486
 2.33 2.9 6.38 200 120 1 1.1 4 0.55 3.5 34.4 29.02 4.38 1 3.09 6.2 11.6 15 1.7e-008 50 1 21.0215 12.25 0 10 0.335844 -0.0212352 -1.07823
 2.33 2.9 6.38 200 120 1 1.1 4 0.55 3.5 34.4 29.02 4.38 1 3.09 6.2 11.6 15 1.7e-008 50 1 21.0215 12.25 0 10 0.419805 -0.0282351 -1.255
 2.33 2.9 6.38 200 120 1 1.1 4 0.55 3.5 34.4 29.02 4.38 1 3.09 6.2 11.6 15 1.7e-008 50 1 21.0215 12.25 0 10 0.503766 0.0939014 -1.16089
 2.33 2.9 6.38 200 120 1 1.1 4 0.55 3.5 34.4 29.02 4.38 1 3.09 6.2 11.6 15 1.7e-008 50 1 21.0215 12.25 0 10 0.587727 -0.123917 -1.24018
 2.33 2.9 6.38 200 120 1 1.1 4 0.55 3.5 34.4 29.02 4.38 1 3.09 6.2 11.6 15 1.7e-008 50 1 21.0215 12.25 0 10 0.671688 0.122589 -1.46968
 2.33 2.9 6.38 200 120 1 1.1 4 0.55 3.5 34.4 29.02 4.38 1 3.09 6.2 11.6 15 1.7e-008 50 1 21.0215 12.25 0 10 0.755649 -0.0117263 -1.20524
 2.33 2.9 6.38 200 120 1 1.1 4 0.55 3.5 34.4 29.02 4.38 1 3.09 6.2 11.6 15 1.7e-008 50 1 21.0215 12.25 0 10 0.83961 -0.239911 -2.12882
 2.33 2.9 6.38 200 120 1 1.1 4 0.55 3.5 34.4 29.02 4.38 1 3.09 6.2 11.6 15 1.7e-008 50 1 21.0215 12.25 0 10 0.923571 1.4327 -2.28275
 2.33 2.9 6.38 200 120 1 1.1 4 0.55 3.5 34.4 29.02 4.38 1 3.09 6.2 11.6 15 1.7e-008 50 1 21.0215 12.25 0 10 1.00753 1.80834 0.249018
 2.33 2.9 6.38 200 120 1 1.1 4 0.55 3.5 34.4 29.02 4.38 1 3.09 6.2 11.6 15 1.7e-008 50 1 21.0215 12.25 0 10 1.09149 -0.774734 -0.52799
 2.33 2.9 6.38 200 120 1 1.1 4 0.55 3.5 34.4 29.02 4.38 1 3.09 6.2 11.6 15 1.7e-008 50 1 21.0215 12.25 0 10 1.17545 2.36944 -2.3444
 2.33 2.9 6.38 200 120 1 1.1 4 0.55 3.5 34.4 29.02 4.38 1 3.09 6.2 11.6 15 1.7e-008 50 1 21.0215 12.25 0 10 1.25941 1.73535 -3.09657
 2.33 2.9 6.38 200 120 1 1.1 4 0.55 3.5 34.4 29.02 4.38 1 3.09 6.2 11.6 15 1.7e-008 50 1 21.0215 12.25 0 10 1.34338 -0.764495 -0.59096
 2.33 2.9 6.38 200 120 1 1.1 4 0.55 3.5 34.4 29.02 4.38 1 3.09 6.2 11.6 15 1.7e-008 50 1 21.0215 12.25 0 10 1.42734 -0.175037 -0.807836
 2.33 2.9 6.38 200 120 1 1.1 4 0.55 3.5 34.4 29.02 4.38 1 3.09 6.2 11.6 15 1.7e-008 50 1 21.0215 12.25 0 10 1.5113 -0.174052 -0.63346
 2.33 2.9 6.38 200 120 1 1.1 4 0.55 3.5 34.4 29.02 4.38 1 3.09 6.2 11.6 15 1.7e-008 50 1 21.0215 12.25 0 10 1.59526 -0.151555 -1.40891
 2.33 2.9 6.38 200 120 1 1.1 4 0.55 3.5 34.4 29.02 4.38 1 3.09 6.2 11.6 15 1.7e-008 50 1 21.0215 12.25 0 10 1.67922 0.113333 -1.54511
 2.33 2.9 6.38 200 120 1 1.1 4 0.55 3.5 34.4 29.02 4.38 1 3.09 6.2 11.6 15 1.7e-008 50 1 21.0215 12.25 0 10 1.76318 -0.6119 -2.1077
 2.33 2.9 6.38 200 120 1 1.1 4 0.55 3.5 34.4 29.02 4.38 1 3.09 6.2 11.6 15 1.7e-008 50 1 21.0215 12.25 0 10 1.84714 -1.169 -3.62779
 2.33 2.9 6.38 200 120 1 1.1 4 0.55 3.5 34.4 29.02 4.38 1 3.09 6.2 11.6 15 1.7e-008 50 1 21.0215 12.25 0 10 1.9311 -6.35904 2.78527
 2.33 2.9 6.38 200 120 1 1.1 4 0.55 3.5 34.4 29.02 4.38 1 3.09 6.2 11.6 15 1.7e-008 50 1 21.0215 12.25 0 10 2.01506 -0.669194 0.859599
 2.33 2.9 6.38 200 120 1 1.1 4 0.55 3.5 34.4 29.02 4.38 1 3.09 6.2 11.6 15 1.7e-008 75 1 21.0215 12.25 0 10 0.0327653 -0.0354505 -1.13622
 2.33 2.9 6.38 200 120 1 1.1 4 0.55 3.5 34.4 29.02 4.38 1 3.09 6.2 11.6 15 1.7e-008 75 1 21.0215 12.25 0 10 0.0887393 0.0178152 -1.16004
 2.33 2.9 6.38 200 120 1 1.1 4 0.55 3.5 34.4 29.02 4.38 1 3.09 6.2 11.6 15 1.7e-008 75 1 21.0215 12.25 0 10 0.144713 0.0350948 -1.10902
 2.33 2.9 6.38 200 120 1 1.1 4 0.55 3.5 34.4 29.02 4.38 1 3.09 6.2 11.6 15 1.7e-008 75 1 21.0215 12.25 0 10 0.200687 -0.0234093 -1.10301
 2.33 2.9 6.38 200 120 1 1.1 4 0.55 3.5 34.4 29.02 4.38 1 3.09 6.2 11.6 15 1.7e-008 75 1 21.0215 12.25 0 10 0.256661 -0.0316745 -1.17553
 2.33 2.9 6.38 200 120 1 1.1 4 0.55 3.5 34.4 29.02 4.38 1 3.09 6.2 11.6 15 1.7e-008 75 1 21.0215 12.25 0 10 0.312635 0.0371541 -1.19183
 2.33 2.9 6.38 200 120 1 1.1 4 0.55 3.5 34.4 29.02 4.38 1 3.09 6.2 11.6 15 1.7e-008 75 1 21.0215 12.25 0 10 0.368609 0.0363226 -1.13227
 2.33 2.9 6.38 200 120 1 1.1 4 0.55 3.5 34.4 29.02 4.38 1 3.09 6.2 11.6 15 1.7e-008 75 1 21.0215 12.25 0 10 0.424583 -0.0464859 -1.15919
 2.33 2.9 6.38 200 120 1 1.1 4 0.55 3.5 34.4 29.02 4.38 1 3.09 6.2 11.6 15 1.7e-008 75 1 21.0215 12.25 0 10 0.480557 -0.0301148 -1.27674
 2.33 2.9 6.38 200 120 1 1.1 4 0.55 3.5 34.4 29.02 4.38 1 3.09 6.2 11.6 15 1.7e-008 75 1 21.0215 12.25 0 10 0.536531 0.0778219 -1.2797
 2.33 2.9 6.38 200 120 1 1.1 4 0.55 3.5 34.4 29.02 4.38 1 3.09 6.2 11.6 15 1.7e-008 75 1 21.0215 12.25 0 10 0.592505 0.0370362 -1.19156
 2.33 2.9 6.38 200 120 1 1.1 4 0.55 3.5 34.4 29.02 4.38 1 3.09 6.2 11.6 15 1.7e-008 75 1 21.0215 12.25 0 10 0.648479 -0.113121 -1.30261
 2.33 2.9 6.38 200 120 1 1.1 4 0.55 3.5 34.4 29.02 4.38 1 3.09 6.2 11.6 15 1.7e-008 75 1 21.0215 12.25 0 10 0.704453 -0.018843 -1.55629
 2.33 2.9 6.38 200 120 1 1.1 4 0.55 3.5 34.4 29.02 4.38 1 3.09 6.2 11.6 15 1.7e-008 75 1 21.0215 12.25 0 10 0.760427 0.227155 -1.50914
 2.33 2.9 6.38 200 120 1 1.1 4 0.55 3.5 34.4 29.02 4.38 1 3.09 6.2 11.6 15 1.7e-008 75 1 21.0215 12.25 0 10 0.816401 -0.00173865 -1.31768
 2.33 2.9 6.38 200 120 1 1.1 4 0.55 3.5 34.4 29.02 4.38 1 3.09 6.2 11.6 15 1.7e-008 75 1 21.0215 12.25 0 10 0.872375 -0.576011 -2.04335
 2.33 2.9 6.38 200 120 1 1.1 4 0.55 3.5 34.4 29.02 4.38 1 3.09 6.2 11.6 15 1.7e-008 75 1 21.0215 12.25 0 10 0.928349 0.421794 -4.72307
 2.33 2.9 6.38 200 120 1 1.1 4 0.55 3.5 34.4 29.02 4.38 1 3.09 6.2 11.6 15 1.7e-008 75 1 21.0215 12.25 0 10 0.984323 -3.8521 1.14589
 2.33 2.9 6.38 200 120 1 1.1 4 0.55 3.5 34.4 29.02 4.38 1 3.09 6.2 11.6 15 1.7e-008 75 1 21.0215 12.25 0 10 1.0403 0.617488 -1.45116
 2.33 2.9 6.38 200 120 1 1.1 4 0.55 3.5 34.4 29.02 4.38 1 3.09 6.2 11.6 15 1.7e-008 75 1 21.0215 12.25 0 10 1.09627 0.674123 -0.291618
 2.33 2.9 6.38 200 120 1 1.1 4 0.55 3.5 34.4 29.02 4.38 1 3.09 6.2 11.6 15 1.7e-008 75 1 21.0215 12.25 0 10 1.15225 -1.07752 -0.853423
 2.33 2.9 6.38 200 120 1 1.1 4 0.55 3.5 34.4 29.02 4.38 1 3.09 6.2 11.6 15 1.7e-008 75 1 21.0215 12.25 0 10 1.20822 2.51507 6.23248
 2.33 2.9 6.38 200 120 1 1.1 4 0.55 3.5 34.4 29.02 4.38 1 3.09 6.2 11.6 15 1.7e-008 75 1 21.0215 12.25 0 10 1.26419 -1.20781 -2.5063
 2.33 2.9 6.38 200 120 1 1.1 4 0.55 3.5 34.4 29.02 4.38 1 3.09 6.2 11.6 15 1.7e-008 75 1 21.0215 12.25 0 10 1.32017 -1.12864 1.66608
 2.33 2.9 6.38 200 120 1 1.1 4 0.55 3.5 34.4 29.02 4.38 1 3.09 6.2 11.6 15 1.7e-008 100 1 21.0215 12.25 0 10 0.0071674 -0.0119551 -1.12997
 2.33 2.9 6.38 200 120 1 1.1 4 0.55 3.5 34.4 29.02 4.38 1 3.09 6.2 11.6 15 1.7e-008 100 1 21.0215 12.25 0 10 0.0491479 -0.0166789 -1.1507
 2.33 2.9 6.38 200 120 1 1.1 4 0.55 3.5 34.4 29.02 4.38 1 3.09 6.2 11.6 15 1.7e-008 100 1 21.0215 12.25 0 10 0.0911284 -0.00727773 -1.17018
 2.33 2.9 6.38 200 120 1 1.1 4 0.55 3.5 34.4 29.02 4.38 1 3.09 6.2 11.6 15 1.7e-008 100 1 21.0215 12.25 0 10 0.133109 0.0132703 -1.17112
 2.33 2.9 6.38 200 120 1 1.1 4 0.55 3.5 34.4 29.02 4.38 1 3.09 6.2 11.6 15 1.7e-008 100 1 21.0215 12.25 0 10 0.175089 0.018358 -1.1551
 2.33 2.9 6.38 200 120 1 1.1 4 0.55 3.5 34.4 29.02 4.38 1 3.09 6.2 11.6 15 1.7e-008 100 1 21.0215 12.25 0 10 0.21707 -0.000185224 -1.14918
 2.33 2.9 6.38 200 120 1 1.1 4 0.55 3.5 34.4 29.02 4.38 1 3.09 6.2 11.6 15 1.7e-008 100 1 21.0215 12.25 0 10 0.25905 -0.0186211 -1.17149
 2.33 2.9 6.38 200 120 1 1.1 4 0.55 3.5 34.4 29.02 4.38 1 3.09 6.2 11.6 15 1.7e-008 100 1 21.0215 12.25 0 10 0.301031 -0.0100521 -1.20509
 2.33 2.9 6.38 200 120 1 1.1 4 0.55 3.5 34.4 29.02 4.38 1 3.09 6.2 11.6 15 1.7e-008 100 1 21.0215 12.25 0 10 0.343011 0.0183478 -1.21645
 2.33 2.9 6.38 200 120 1 1.1 4 0.55 3.5 34.4 29.02 4.38 1 3.09 6.2 11.6 15 1.7e-008 100 1 21.0215 12.25 0 10 0.384992 0.0292857 -1.20029
 2.33 2.9 6.38 200 120 1 1.1 4 0.55 3.5 34.4 29.02 4.38 1 3.09 6.2 11.6 15 1.7e-008 100 1 21.0215 12.25 0 10 0.426972 0.00260969 -1.19352
 2.33 2.9 6.38 200 120 1 1.1 4 0.55 3.5 34.4 29.02 4.38 1 3.09 6.2 11.6 15 1.7e-008 100 1 21.0215 12.25 0 10 0.468953 -0.0309957 -1.23221
 2.33 2.9 6.38 200 120 1 1.1 4 0.55 3.5 34.4 29.02 4.38 1 3.09 6.2 11.6 15 1.7e-008 100 1 21.0215 12.25 0 10 0.510933 -0.0210511 -1.29839
 2.33 2.9 6.38 200 120 1 1.1 4 0.55 3.5 34.4 29.02 4.38 1 3.09 6.2 11.6 15 1.7e-008 100 1 21.0215 12.25 0 10 0.552914 0.0330975 -1.3304
 2.33 2.9 6.38 200 120 1 1.1 4 0.55 3.5 34.4 29.02 4.38 1 3.09 6.2 11.6 15 1.7e-008 100 1 21.0215 12.25 0 10 0.594894 0.0628822 -1.30235
 2.33 2.9 6.38 200 120 1 1.1 4 0.55 3.5 34.4 29.02 4.38 1 3.09 6.2 11.6 15 1.7e-008 100 1 21.0215 12.25 0 10 0.636875 0.00835318 -1.28118
 2.33 2.9 6.38 200 120 1 1.1 4 0.55 3.5 34.4 29.02 4.38 1 3.09 6.2 11.6 15 1.7e-008 100 1 21.0215 12.25 0 10 0.678855 -0.0824218 -1.36734
 2.33 2.9 6.38 200 120 1 1.1 4 0.55 3.5 34.4 29.02 4.38 1 3.09 6.2 11.6 15 1.7e-008 100 1 21.0215 12.25 0 10 0.720836 -0.0718744 -1.55452
 2.33 2.9 6.38 200 120 1 1.1 4 0.55 3.5 34.4 29.02 4.38 1 3.09 6.2 11.6 15 1.7e-008 100 1 21.0215 12.25 0 10 0.762816 0.0965152 -1.67917
 2.33 2.9 6.38 200 120 1 1.1 4 0.55 3.5 34.4 29.02 4.38 1 3.09 6.2 11.6 15 1.7e-008 100 1 21.0215 12.25 0 10 0.804797 0.242249 -1.59189
 2.33 2.9 6.38 200 120 1 1.1 4 0.55 3.5 34.4 29.02 4.38 1 3.09 6.2 11.6 15 1.7e-008 100 1 21.0215 12.25 0 10 0.846777 0.0412551 -1.45483
 2.33 2.9 6.38 200 120 1 1.1 4 0.55 3.5 34.4 29.02 4.38 1 3.09 6.2 11.6 15 1.7e-008 100 1 21.0215 12.25 0 10 0.888758 -0.60064 -1.91363
 2.33 2.9 6.38 200 120 1 1.1 4 0.55 3.5 34.4 29.02 4.38 1 3.09 6.2 11.6 15 1.7e-008 100 1 21.0215 12.25 0 10 0.930738 -1.0997 -4.56088
 2.33 2.9 6.38 200 120 1 1.1 4 0.55 3.5 34.4 29.02 4.38 1 3.09 6.2 11.6 15 1.7e-008 100 1 21.0215 12.25 0 10 0.972719 -6.16792 20.0028
 2.33 2.9 6.38 200 120 1 1.1 4 0.55 3.5 34.4 29.02 4.38 1 3.09 6.2 11.6 15 1.7e-008 100 1 21.0215 12.25 0 10 1.0147 -1.77361 -0.334793
 2.33 2.9 6.38 200 120 1 1.1 4 0.55 3.5 34.4 29.02 4.38 1 3.09 6.2 11.6 15 1.7e-008 100 1 21.0215 12.25 0 10 1.02391 1.41874 -0.876833