Folder: CloneLHC_IW_model/LHC_elements/from_Benoit_BPMs (part 2)

File: BPMstripline_80mm.dat
 Dstrippipe Lconnect Lpipe Lstrip M Rbeam Rbpm Rconn Riso1 Rpipe Rstrip Strip WStrip Xcurved Xstraight alfa angle beam_charge beam_sigma modes tap transStrip xbeam ybeam Freq[GHz] Imp_Real[Ohm] Imp_Imag[Ohm]
 2.9 6.38 200 120 1 1.1 4 0.55 3.5 44.4 39.02 4.38 1 3.09 6.2 11.6 15 1.7e-008 50 1 21.0215 12.25 0 10 0 0 -2.84251
 2.9 6.38 200 120 1 1.1 4 0.55 3.5 44.4 39.02 4.38 1 3.09 6.2 11.6 15 1.7e-008 50 1 21.0215 12.25 0 10 0.0819132 -0.392846 -2.82408
 2.9 6.38 200 120 1 1.1 4 0.55 3.5 44.4 39.02 4.38 1 3.09 6.2 11.6 15 1.7e-008 50 1 21.0215 12.25 0 10 0.163826 -0.760258 -2.67086
 2.9 6.38 200 120 1 1.1 4 0.55 3.5 44.4 39.02 4.38 1 3.09 6.2 11.6 15 1.7e-008 50 1 21.0215 12.25 0 10 0.245739 -1.06168 -2.43554
 2.9 6.38 200 120 1 1.1 4 0.55 3.5 44.4 39.02 4.38 1 3.09 6.2 11.6 15 1.7e-008 50 1 21.0215 12.25 0 10 0.327653 -1.28863 -2.13651
 2.9 6.38 200 120 1 1.1 4 0.55 3.5 44.4 39.02 4.38 1 3.09 6.2 11.6 15 1.7e-008 50 1 21.0215 12.25 0 10 0.409566 -1.41571 -1.80358
 2.9 6.38 200 120 1 1.1 4 0.55 3.5 44.4 39.02 4.38 1 3.09 6.2 11.6 15 1.7e-008 50 1 21.0215 12.25 0 10 0.491479 -1.45229 -1.46677
 2.9 6.38 200 120 1 1.1 4 0.55 3.5 44.4 39.02 4.38 1 3.09 6.2 11.6 15 1.7e-008 50 1 21.0215 12.25 0 10 0.573392 -1.39108 -1.15109
 2.9 6.38 200 120 1 1.1 4 0.55 3.5 44.4 39.02 4.38 1 3.09 6.2 11.6 15 1.7e-008 50 1 21.0215 12.25 0 10 0.655305 -1.25887 -0.888091
 2.9 6.38 200 120 1 1.1 4 0.55 3.5 44.4 39.02 4.38 1 3.09 6.2 11.6 15 1.7e-008 50 1 21.0215 12.25 0 10 0.737218 -1.06434 -0.685193
 2.9 6.38 200 120 1 1.1 4 0.55 3.5 44.4 39.02 4.38 1 3.09 6.2 11.6 15 1.7e-008 50 1 21.0215 12.25 0 10 0.819132 -0.841454 -0.568196
 2.9 6.38 200 120 1 1.1 4 0.55 3.5 44.4 39.02 4.38 1 3.09 6.2 11.6 15 1.7e-008 50 1 21.0215 12.25 0 10 0.901045 -0.609774 -0.519974
 2.9 6.38 200 120 1 1.1 4 0.55 3.5 44.4 39.02 4.38 1 3.09 6.2 11.6 15 1.7e-008 50 1 21.0215 12.25 0 10 0.982958 -0.39468 -0.557793
 2.9 6.38 200 120 1 1.1 4 0.55 3.5 44.4 39.02 4.38 1 3.09 6.2 11.6 15 1.7e-008 50 1 21.0215 12.25 0 10 1.06487 -0.221749 -0.64168
 2.9 6.38 200 120 1 1.1 4 0.55 3.5 44.4 39.02 4.38 1 3.09 6.2 11.6 15 1.7e-008 50 1 21.0215 12.25 0 10 1.14678 -0.0903467 -0.782151
 2.9 6.38 200 120 1 1.1 4 0.55 3.5 44.4 39.02 4.38 1 3.09 6.2 11.6 15 1.7e-008 50 1 21.0215 12.25 0 10 1.2287 -0.0321225 -0.928747
 2.9 6.38 200 120 1 1.1 4 0.55 3.5 44.4 39.02 4.38 1 3.09 6.2 11.6 15 1.7e-008 50 1 21.0215 12.25 0 10 1.31061 -0.00623006 -1.08785
 2.9 6.38 200 120 1 1.1 4 0.55 3.5 44.4 39.02 4.38 1 3.09 6.2 11.6 15 1.7e-008 50 1 21.0215 12.25 0 10 1.39252 -0.0598641 -1.2214
 2.9 6.38 200 120 1 1.1 4 0.55 3.5 44.4 39.02 4.38 1 3.09 6.2 11.6 15 1.7e-008 50 1 21.0215 12.25 0 10 1.47444 -0.104424 -1.32468
 2.9 6.38 200 120 1 1.1 4 0.55 3.5 44.4 39.02 4.38 1 3.09 6.2 11.6 15 1.7e-008 50 1 21.0215 12.25 0 10 1.55635 -0.220323 -1.4064
 2.9 6.38 200 120 1 1.1 4 0.55 3.5 44.4 39.02 4.38 1 3.09 6.2 11.6 15 1.7e-008 50 1 21.0215 12.25 0 10 1.63826 -0.270159 -1.41735
 2.9 6.38 200 120 1 1.1 4 0.55 3.5 44.4 39.02 4.38 1 3.09 6.2 11.6 15 1.7e-008 50 1 21.0215 12.25 0 10 1.72018 -0.382747 -1.47533
 2.9 6.38 200 120 1 1.1 4 0.55 3.5 44.4 39.02 4.38 1 3.09 6.2 11.6 15 1.7e-008 50 1 21.0215 12.25 0 10 1.80209 -0.382665 -1.39388
 2.9 6.38 200 120 1 1.1 4 0.55 3.5 44.4 39.02 4.38 1 3.09 6.2 11.6 15 1.7e-008 50 1 21.0215 12.25 0 10 1.884 -0.427053 -1.58303
 2.9 6.38 200 120 1 1.1 4 0.55 3.5 44.4 39.02 4.38 1 3.09 6.2 11.6 15 1.7e-008 50 1 21.0215 12.25 0 10 1.96592 -0.387616 -1.43331
 2.9 6.38 200 120 1 1.1 4 0.55 3.5 44.4 39.02 4.38 1 3.09 6.2 11.6 15 1.7e-008 50 1 21.0215 12.25 0 10 2.04783 -3.09528 5.34009
 2.9 6.38 200 120 1 1.1 4 0.55 3.5 44.4 39.02 4.38 1 3.09 6.2 11.6 15 1.7e-008 75 1 21.0215 12.25 0 10 0.0532436 -0.261556 -2.86989
 2.9 6.38 200 120 1 1.1 4 0.55 3.5 44.4 39.02 4.38 1 3.09 6.2 11.6 15 1.7e-008 75 1 21.0215 12.25 0 10 0.107852 -0.513734 -2.80562
 2.9 6.38 200 120 1 1.1 4 0.55 3.5 44.4 39.02 4.38 1 3.09 6.2 11.6 15 1.7e-008 75 1 21.0215 12.25 0 10 0.162461 -0.751534 -2.69379
 2.9 6.38 200 120 1 1.1 4 0.55 3.5 44.4 39.02 4.38 1 3.09 6.2 11.6 15 1.7e-008 75 1 21.0215 12.25 0 10 0.21707 -0.964504 -2.54821
 2.9 6.38 200 120 1 1.1 4 0.55 3.5 44.4 39.02 4.38 1 3.09 6.2 11.6 15 1.7e-008 75 1 21.0215 12.25 0 10 0.271679 -1.14172 -2.37073
 2.9 6.38 200 120 1 1.1 4 0.55 3.5 44.4 39.02 4.38 1 3.09 6.2 11.6 15 1.7e-008 75 1 21.0215 12.25 0 10 0.326287 -1.28267 -2.16842
 2.9 6.38 200 120 1 1.1 4 0.55 3.5 44.4 39.02 4.38 1 3.09 6.2 11.6 15 1.7e-008 75 1 21.0215 12.25 0 10 0.380896 -1.38188 -1.953
 2.9 6.38 200 120 1 1.1 4 0.55 3.5 44.4 39.02 4.38 1 3.09 6.2 11.6 15 1.7e-008 75 1 21.0215 12.25 0 10 0.435505 -1.43659 -1.73007
 2.9 6.38 200 120 1 1.1 4 0.55 3.5 44.4 39.02 4.38 1 3.09 6.2 11.6 15 1.7e-008 75 1 21.0215 12.25 0 10 0.490114 -1.45004 -1.50935
 2.9 6.38 200 120 1 1.1 4 0.55 3.5 44.4 39.02 4.38 1 3.09 6.2 11.6 15 1.7e-008 75 1 21.0215 12.25 0 10 0.544722 -1.42198 -1.30072
 2.9 6.38 200 120 1 1.1 4 0.55 3.5 44.4 39.02 4.38 1 3.09 6.2 11.6 15 1.7e-008 75 1 21.0215 12.25 0 10 0.599331 -1.35645 -1.10912
 2.9 6.38 200 120 1 1.1 4 0.55 3.5 44.4 39.02 4.38 1 3.09 6.2 11.6 15 1.7e-008 75 1 21.0215 12.25 0 10 0.65394 -1.2604 -0.942879
 2.9 6.38 200 120 1 1.1 4 0.55 3.5 44.4 39.02 4.38 1 3.09 6.2 11.6 15 1.7e-008 75 1 21.0215 12.25 0 10 0.708549 -1.13763 -0.807326
 2.9 6.38 200 120 1 1.1 4 0.55 3.5 44.4 39.02 4.38 1 3.09 6.2 11.6 15 1.7e-008 75 1 21.0215 12.25 0 10 0.763158 -0.996693 -0.704108
 2.9 6.38 200 120 1 1.1 4 0.55 3.5 44.4 39.02 4.38 1 3.09 6.2 11.6 15 1.7e-008 75 1 21.0215 12.25 0 10 0.817766 -0.845724 -0.637576
 2.9 6.38 200 120 1 1.1 4 0.55 3.5 44.4 39.02 4.38 1 3.09 6.2 11.6 15 1.7e-008 75 1 21.0215 12.25 0 10 0.872375 -0.690164 -0.606907
 2.9 6.38 200 120 1 1.1 4 0.55 3.5 44.4 39.02 4.38 1 3.09 6.2 11.6 15 1.7e-008 75 1 21.0215 12.25 0 10 0.926984 -0.539703 -0.609786
 2.9 6.38 200 120 1 1.1 4 0.55 3.5 44.4 39.02 4.38 1 3.09 6.2 11.6 15 1.7e-008 75 1 21.0215 12.25 0 10 0.981593 -0.400176 -0.645771
 2.9 6.38 200 120 1 1.1 4 0.55 3.5 44.4 39.02 4.38 1 3.09 6.2 11.6 15 1.7e-008 75 1 21.0215 12.25 0 10 1.0362 -0.276015 -0.70825
 2.9 6.38 200 120 1 1.1 4 0.55 3.5 44.4 39.02 4.38 1 3.09 6.2 11.6 15 1.7e-008 75 1 21.0215 12.25 0 10 1.09081 -0.174478 -0.792664
 2.9 6.38 200 120 1 1.1 4 0.55 3.5 44.4 39.02 4.38 1 3.09 6.2 11.6 15 1.7e-008 75 1 21.0215 12.25 0 10 1.14542 -0.0959842 -0.894674
 2.9 6.38 200 120 1 1.1 4 0.55 3.5 44.4 39.02 4.38 1 3.09 6.2 11.6 15 1.7e-008 75 1 21.0215 12.25 0 10 1.20003 -0.0427372 -1.00468
 2.9 6.38 200 120 1 1.1 4 0.55 3.5 44.4 39.02 4.38 1 3.09 6.2 11.6 15 1.7e-008 75 1 21.0215 12.25 0 10 1.25464 -0.016685 -1.11961
 2.9 6.38 200 120 1 1.1 4 0.55 3.5 44.4 39.02 4.38 1 3.09 6.2 11.6 15 1.7e-008 75 1 21.0215 12.25 0 10 1.30925 -0.0120853 -1.23264
 2.9 6.38 200 120 1 1.1 4 0.55 3.5 44.4 39.02 4.38 1 3.09 6.2 11.6 15 1.7e-008 75 1 21.0215 12.25 0 10 1.36385 -0.0306311 -1.33616
 2.9 6.38 200 120 1 1.1 4 0.55 3.5 44.4 39.02 4.38 1 3.09 6.2 11.6 15 1.7e-008 100 1 21.0215 12.25 0 10 0.0389087 -0.169645 -2.89855
 2.9 6.38 200 120 1 1.1 4 0.55 3.5 44.4 39.02 4.38 1 3.09 6.2 11.6 15 1.7e-008 100 1 21.0215 12.25 0 10 0.0798653 -0.378769 -2.83403
 2.9 6.38 200 120 1 1.1 4 0.55 3.5 44.4 39.02 4.38 1 3.09 6.2 11.6 15 1.7e-008 100 1 21.0215 12.25 0 10 0.120822 -0.580358 -2.77922
 2.9 6.38 200 120 1 1.1 4 0.55 3.5 44.4 39.02 4.38 1 3.09 6.2 11.6 15 1.7e-008 100 1 21.0215 12.25 0 10 0.161778 -0.751036 -2.70323
 2.9 6.38 200 120 1 1.1 4 0.55 3.5 44.4 39.02 4.38 1 3.09 6.2 11.6 15 1.7e-008 100 1 21.0215 12.25 0 10 0.202735 -0.905928 -2.59173
 2.9 6.38 200 120 1 1.1 4 0.55 3.5 44.4 39.02 4.38 1 3.09 6.2 11.6 15 1.7e-008 100 1 21.0215 12.25 0 10 0.243692 -1.05497 -2.46158
 2.9 6.38 200 120 1 1.1 4 0.55 3.5 44.4 39.02 4.38 1 3.09 6.2 11.6 15 1.7e-008 100 1 21.0215 12.25 0 10 0.284648 -1.1833 -2.32614
 2.9 6.38 200 120 1 1.1 4 0.55 3.5 44.4 39.02 4.38 1 3.09 6.2 11.6 15 1.7e-008 100 1 21.0215 12.25 0 10 0.325605 -1.28059 -2.17737
 2.9 6.38 200 120 1 1.1 4 0.55 3.5 44.4 39.02 4.38 1 3.09 6.2 11.6 15 1.7e-008 100 1 21.0215 12.25 0 10 0.366561 -1.35632 -2.01193
 2.9 6.38 200 120 1 1.1 4 0.55 3.5 44.4 39.02 4.38 1 3.09 6.2 11.6 15 1.7e-008 100 1 21.0215 12.25 0 10 0.407518 -1.41535 -1.84417
 2.9 6.38 200 120 1 1.1 4 0.55 3.5 44.4 39.02 4.38 1 3.09 6.2 11.6 15 1.7e-008 100 1 21.0215 12.25 0 10 0.448475 -1.44695 -1.6823
 2.9 6.38 200 120 1 1.1 4 0.55 3.5 44.4 39.02 4.38 1 3.09 6.2 11.6 15 1.7e-008 100 1 21.0215 12.25 0 10 0.489431 -1.4481 -1.51937
 2.9 6.38 200 120 1 1.1 4 0.55 3.5 44.4 39.02 4.38 1 3.09 6.2 11.6 15 1.7e-008 100 1 21.0215 12.25 0 10 0.530388 -1.43051 -1.35642
 2.9 6.38 200 120 1 1.1 4 0.55 3.5 44.4 39.02 4.38 1 3.09 6.2 11.6 15 1.7e-008 100 1 21.0215 12.25 0 10 0.571344 -1.39717 -1.20769
 2.9 6.38 200 120 1 1.1 4 0.55 3.5 44.4 39.02 4.38 1 3.09 6.2 11.6 15 1.7e-008 100 1 21.0215 12.25 0 10 0.612301 -1.33876 -1.07659
 2.9 6.38 200 120 1 1.1 4 0.55 3.5 44.4 39.02 4.38 1 3.09 6.2 11.6 15 1.7e-008 100 1 21.0215 12.25 0 10 0.653257 -1.25828 -0.954017
 2.9 6.38 200 120 1 1.1 4 0.55 3.5 44.4 39.02 4.38 1 3.09 6.2 11.6 15 1.7e-008 100 1 21.0215 12.25 0 10 0.694214 -1.17047 -0.84389
 2.9 6.38 200 120 1 1.1 4 0.55 3.5 44.4 39.02 4.38 1 3.09 6.2 11.6 15 1.7e-008 100 1 21.0215 12.25 0 10 0.735171 -1.07519 -0.760334
 2.9 6.38 200 120 1 1.1 4 0.55 3.5 44.4 39.02 4.38 1 3.09 6.2 11.6 15 1.7e-008 100 1 21.0215 12.25 0 10 0.776127 -0.9626 -0.699864
 2.9 6.38 200 120 1 1.1 4 0.55 3.5 44.4 39.02 4.38 1 3.09 6.2 11.6 15 1.7e-008 100 1 21.0215 12.25 0 10 0.817084 -0.842232 -0.649571
 2.9 6.38 200 120 1 1.1 4 0.55 3.5 44.4 39.02 4.38 1 3.09 6.2 11.6 15 1.7e-008 100 1 21.0215 12.25 0 10 0.85804 -0.731304 -0.617776
 2.9 6.38 200 120 1 1.1 4 0.55 3.5 44.4 39.02 4.38 1 3.09 6.2 11.6 15 1.7e-008 100 1 21.0215 12.25 0 10 0.898997 -0.622363 -0.618471
 2.9 6.38 200 120 1 1.1 4 0.55 3.5 44.4 39.02 4.38 1 3.09 6.2 11.6 15 1.7e-008 100 1 21.0215 12.25 0 10 0.939953 -0.503468 -0.637349
 2.9 6.38 200 120 1 1.1 4 0.55 3.5 44.4 39.02 4.38 1 3.09 6.2 11.6 15 1.7e-008 100 1 21.0215 12.25 0 10 0.98091 -0.393882 -0.657757
 2.9 6.38 200 120 1 1.1 4 0.55 3.5 44.4 39.02 4.38 1 3.09 6.2 11.6 15 1.7e-008 100 1 21.0215 12.25 0 10 1.02187 -0.311317 -0.698261
 2.9 6.38 200 120 1 1.1 4 0.55 3.5 44.4 39.02 4.38 1 3.09 6.2 11.6 15 1.7e-008 100 1 21.0215 12.25 0 10 1.02391 -0.299047 -0.700443

File: BPMstripline_80mm_scaled.dat
 sc Dstrippipe Lconnect Lpipe Lstrip M Rbeam Rbpm Rconn Riso1 Rpipe Rstrip Strip WStrip Xcurved Xstraight alfa angle beam_charge beam_sigma modes tap transStrip xbeam ybeam  Freq[GHz] Imp_Real[Ohm] Imp_Imag[Ohm]
 1.33 2.9 6.38 200 120 1 1.1 4 0.55 3.5 34.4 29.02 4.38 1 3.09 6.2 11.6 15 1.7e-008 50 1 21.0215 12.25 0 10 0 0 -1.89824
 1.33 2.9 6.38 200 120 1 1.1 4 0.55 3.5 34.4 29.02 4.38 1 3.09 6.2 11.6 15 1.7e-008 50 1 21.0215 12.25 0 10 0.083961 0.0140534 -1.83417
 1.33 2.9 6.38 200 120 1 1.1 4 0.55 3.5 34.4 29.02 4.38 1 3.09 6.2 11.6 15 1.7e-008 50 1 21.0215 12.25 0 10 0.167922 -0.0165585 -1.83466
 1.33 2.9 6.38 200 120 1 1.1 4 0.55 3.5 34.4 29.02 4.38 1 3.09 6.2 11.6 15 1.7e-008 50 1 21.0215 12.25 0 10 0.251883 0.00624911 -1.89468
 1.33 2.9 6.38 200 120 1 1.1 4 0.55 3.5 34.4 29.02 4.38 1 3.09 6.2 11.6 15 1.7e-008 50 1 21.0215 12.25 0 10 0.335844 0.0306917 -1.84286
 1.33 2.9 6.38 200 120 1 1.1 4 0.55 3.5 34.4 29.02 4.38 1 3.09 6.2 11.6 15 1.7e-008 50 1 21.0215 12.25 0 10 0.419805 -0.0570573 -1.92364
 1.33 2.9 6.38 200 120 1 1.1 4 0.55 3.5 34.4 29.02 4.38 1 3.09 6.2 11.6 15 1.7e-008 50 1 21.0215 12.25 0 10 0.503766 0.0835917 -1.97829
 1.33 2.9 6.38 200 120 1 1.1 4 0.55 3.5 34.4 29.02 4.38 1 3.09 6.2 11.6 15 1.7e-008 50 1 21.0215 12.25 0 10 0.587727 -0.0486802 -1.89014
 1.33 2.9 6.38 200 120 1 1.1 4 0.55 3.5 34.4 29.02 4.38 1 3.09 6.2 11.6 15 1.7e-008 50 1 21.0215 12.25 0 10 0.671688 -0.0175333 -2.21744
 1.33 2.9 6.38 200 120 1 1.1 4 0.55 3.5 34.4 29.02 4.38 1 3.09 6.2 11.6 15 1.7e-008 50 1 21.0215 12.25 0 10 0.755649 0.173966 -1.99616
 1.33 2.9 6.38 200 120 1 1.1 4 0.55 3.5 34.4 29.02 4.38 1 3.09 6.2 11.6 15 1.7e-008 50 1 21.0215 12.25 0 10 0.83961 -0.335695 -2.35153
 1.33 2.9 6.38 200 120 1 1.1 4 0.55 3.5 34.4 29.02 4.38 1 3.09 6.2 11.6 15 1.7e-008 50 1 21.0215 12.25 0 10 0.923571 0.531016 -2.88066
 1.33 2.9 6.38 200 120 1 1.1 4 0.55 3.5 34.4 29.02 4.38 1 3.09 6.2 11.6 15 1.7e-008 50 1 21.0215 12.25 0 10 1.00753 -0.524856 -2.15511
 1.33 2.9 6.38 200 120 1 1.1 4 0.55 3.5 34.4 29.02 4.38 1 3.09 6.2 11.6 15 1.7e-008 50 1 21.0215 12.25 0 10 1.09149 -3.79614 -41.3517
 1.33 2.9 6.38 200 120 1 1.1 4 0.55 3.5 34.4 29.02 4.38 1 3.09 6.2 11.6 15 1.7e-008 50 1 21.0215 12.25 0 10 1.17545 -1.55855 -1.49047
 1.33 2.9 6.38 200 120 1 1.1 4 0.55 3.5 34.4 29.02 4.38 1 3.09 6.2 11.6 15 1.7e-008 50 1 21.0215 12.25 0 10 1.25941 1.17144 -0.964236
 1.33 2.9 6.38 200 120 1 1.1 4 0.55 3.5 34.4 29.02 4.38 1 3.09 6.2 11.6 15 1.7e-008 50 1 21.0215 12.25 0 10 1.34338 -0.777174 -0.987376
 1.33 2.9 6.38 200 120 1 1.1 4 0.55 3.5 34.4 29.02 4.38 1 3.09 6.2 11.6 15 1.7e-008 50 1 21.0215 12.25 0 10 1.42734 0.349859 -2.38292
 1.33 2.9 6.38 200 120 1 1.1 4 0.55 3.5 34.4 29.02 4.38 1 3.09 6.2 11.6 15 1.7e-008 50 1 21.0215 12.25 0 10 1.5113 0.154557 -1.06774
 1.33 2.9 6.38 200 120 1 1.1 4 0.55 3.5 34.4 29.02 4.38 1 3.09 6.2 11.6 15 1.7e-008 50 1 21.0215 12.25 0 10 1.59526 -0.537288 -2.54563
 1.33 2.9 6.38 200 120 1 1.1 4 0.55 3.5 34.4 29.02 4.38 1 3.09 6.2 11.6 15 1.7e-008 50 1 21.0215 12.25 0 10 1.67922 0.835657 -2.03593
 1.33 2.9 6.38 200 120 1 1.1 4 0.55 3.5 34.4 29.02 4.38 1 3.09 6.2 11.6 15 1.7e-008 50 1 21.0215 12.25 0 10 1.76318 -0.825994 -2.08225
 1.33 2.9 6.38 200 120 1 1.1 4 0.55 3.5 34.4 29.02 4.38 1 3.09 6.2 11.6 15 1.7e-008 50 1 21.0215 12.25 0 10 1.84714 0.662378 -3.70329
 1.33 2.9 6.38 200 120 1 1.1 4 0.55 3.5 34.4 29.02 4.38 1 3.09 6.2 11.6 15 1.7e-008 50 1 21.0215 12.25 0 10 1.9311 -0.301874 -2.44726
 1.33 2.9 6.38 200 120 1 1.1 4 0.55 3.5 34.4 29.02 4.38 1 3.09 6.2 11.6 15 1.7e-008 50 1 21.0215 12.25 0 10 2.01506 -5.03266 -2.69253
 1.33 2.9 6.38 200 120 1 1.1 4 0.55 3.5 34.4 29.02 4.38 1 3.09 6.2 11.6 15 1.7e-008 75 1 21.0215 12.25 0 10 0.0327653 -0.0210706 -1.8418
 1.33 2.9 6.38 200 120 1 1.1 4 0.55 3.5 34.4 29.02 4.38 1 3.09 6.2 11.6 15 1.7e-008 75 1 21.0215 12.25 0 10 0.0887393 0.00900289 -1.85802
 1.33 2.9 6.38 200 120 1 1.1 4 0.55 3.5 34.4 29.02 4.38 1 3.09 6.2 11.6 15 1.7e-008 75 1 21.0215 12.25 0 10 0.144713 0.0254706 -1.83265
 1.33 2.9 6.38 200 120 1 1.1 4 0.55 3.5 34.4 29.02 4.38 1 3.09 6.2 11.6 15 1.7e-008 75 1 21.0215 12.25 0 10 0.200687 -0.0060524 -1.82243
 1.33 2.9 6.38 200 120 1 1.1 4 0.55 3.5 34.4 29.02 4.38 1 3.09 6.2 11.6 15 1.7e-008 75 1 21.0215 12.25 0 10 0.256661 -0.0252653 -1.86771
 1.33 2.9 6.38 200 120 1 1.1 4 0.55 3.5 34.4 29.02 4.38 1 3.09 6.2 11.6 15 1.7e-008 75 1 21.0215 12.25 0 10 0.312635 0.0146955 -1.90317
 1.33 2.9 6.38 200 120 1 1.1 4 0.55 3.5 34.4 29.02 4.38 1 3.09 6.2 11.6 15 1.7e-008 75 1 21.0215 12.25 0 10 0.368609 0.0405639 -1.87444
 1.33 2.9 6.38 200 120 1 1.1 4 0.55 3.5 34.4 29.02 4.38 1 3.09 6.2 11.6 15 1.7e-008 75 1 21.0215 12.25 0 10 0.424583 -0.0115599 -1.8661
 1.33 2.9 6.38 200 120 1 1.1 4 0.55 3.5 34.4 29.02 4.38 1 3.09 6.2 11.6 15 1.7e-008 75 1 21.0215 12.25 0 10 0.480557 -0.0426865 -1.95369
 1.33 2.9 6.38 200 120 1 1.1 4 0.55 3.5 34.4 29.02 4.38 1 3.09 6.2 11.6 15 1.7e-008 75 1 21.0215 12.25 0 10 0.536531 0.0354269 -2.01893
 1.33 2.9 6.38 200 120 1 1.1 4 0.55 3.5 34.4 29.02 4.38 1 3.09 6.2 11.6 15 1.7e-008 75 1 21.0215 12.25 0 10 0.592505 0.0763823 -1.95855
 1.33 2.9 6.38 200 120 1 1.1 4 0.55 3.5 34.4 29.02 4.38 1 3.09 6.2 11.6 15 1.7e-008 75 1 21.0215 12.25 0 10 0.648479 -0.0448374 -1.95796
 1.33 2.9 6.38 200 120 1 1.1 4 0.55 3.5 34.4 29.02 4.38 1 3.09 6.2 11.6 15 1.7e-008 75 1 21.0215 12.25 0 10 0.704453 -0.0934581 -2.17156
 1.33 2.9 6.38 200 120 1 1.1 4 0.55 3.5 34.4 29.02 4.38 1 3.09 6.2 11.6 15 1.7e-008 75 1 21.0215 12.25 0 10 0.760427 0.117559 -2.29756
 1.33 2.9 6.38 200 120 1 1.1 4 0.55 3.5 34.4 29.02 4.38 1 3.09 6.2 11.6 15 1.7e-008 75 1 21.0215 12.25 0 10 0.816401 0.178047 -2.10688
 1.33 2.9 6.38 200 120 1 1.1 4 0.55 3.5 34.4 29.02 4.38 1 3.09 6.2 11.6 15 1.7e-008 75 1 21.0215 12.25 0 10 0.872375 -0.228752 -2.18141
 1.33 2.9 6.38 200 120 1 1.1 4 0.55 3.5 34.4 29.02 4.38 1 3.09 6.2 11.6 15 1.7e-008 75 1 21.0215 12.25 0 10 0.928349 -0.296337 -3.01854
 1.33 2.9 6.38 200 120 1 1.1 4 0.55 3.5 34.4 29.02 4.38 1 3.09 6.2 11.6 15 1.7e-008 75 1 21.0215 12.25 0 10 0.984323 0.744177 -3.52783
 1.33 2.9 6.38 200 120 1 1.1 4 0.55 3.5 34.4 29.02 4.38 1 3.09 6.2 11.6 15 1.7e-008 75 1 21.0215 12.25 0 10 1.0403 1.00893 -2.47669
 1.33 2.9 6.38 200 120 1 1.1 4 0.55 3.5 34.4 29.02 4.38 1 3.09 6.2 11.6 15 1.7e-008 75 1 21.0215 12.25 0 10 1.09627 -46.2992 -32.3909
 1.33 2.9 6.38 200 120 1 1.1 4 0.55 3.5 34.4 29.02 4.38 1 3.09 6.2 11.6 15 1.7e-008 75 1 21.0215 12.25 0 10 1.15225 1.08286 3.5444
 1.33 2.9 6.38 200 120 1 1.1 4 0.55 3.5 34.4 29.02 4.38 1 3.09 6.2 11.6 15 1.7e-008 75 1 21.0215 12.25 0 10 1.20822 -1.72846 -0.19396
 1.33 2.9 6.38 200 120 1 1.1 4 0.55 3.5 34.4 29.02 4.38 1 3.09 6.2 11.6 15 1.7e-008 75 1 21.0215 12.25 0 10 1.26419 -0.260693 -2.55557
 1.33 2.9 6.38 200 120 1 1.1 4 0.55 3.5 34.4 29.02 4.38 1 3.09 6.2 11.6 15 1.7e-008 75 1 21.0215 12.25 0 10 1.32017 1.30808 -1.53067
 1.33 2.9 6.38 200 120 1 1.1 4 0.55 3.5 34.4 29.02 4.38 1 3.09 6.2 11.6 15 1.7e-008 100 1 21.0215 12.25 0 10 0.0071674 0.0629093 -1.89876
 1.33 2.9 6.38 200 120 1 1.1 4 0.55 3.5 34.4 29.02 4.38 1 3.09 6.2 11.6 15 1.7e-008 100 1 21.0215 12.25 0 10 0.0491479 -0.00667015 -1.86601
 1.33 2.9 6.38 200 120 1 1.1 4 0.55 3.5 34.4 29.02 4.38 1 3.09 6.2 11.6 15 1.7e-008 100 1 21.0215 12.25 0 10 0.0911284 -0.00906821 -1.88467
 1.33 2.9 6.38 200 120 1 1.1 4 0.55 3.5 34.4 29.02 4.38 1 3.09 6.2 11.6 15 1.7e-008 100 1 21.0215 12.25 0 10 0.133109 0.00432954 -1.89379
 1.33 2.9 6.38 200 120 1 1.1 4 0.55 3.5 34.4 29.02 4.38 1 3.09 6.2 11.6 15 1.7e-008 100 1 21.0215 12.25 0 10 0.175089 0.013585 -1.88847
 1.33 2.9 6.38 200 120 1 1.1 4 0.55 3.5 34.4 29.02 4.38 1 3.09 6.2 11.6 15 1.7e-008 100 1 21.0215 12.25 0 10 0.21707 0.0067938 -1.88311
 1.33 2.9 6.38 200 120 1 1.1 4 0.55 3.5 34.4 29.02 4.38 1 3.09 6.2 11.6 15 1.7e-008 100 1 21.0215 12.25 0 10 0.25905 -0.00724183 -1.89428
 1.33 2.9 6.38 200 120 1 1.1 4 0.55 3.5 34.4 29.02 4.38 1 3.09 6.2 11.6 15 1.7e-008 100 1 21.0215 12.25 0 10 0.301031 -0.00917392 -1.91997
 1.33 2.9 6.38 200 120 1 1.1 4 0.55 3.5 34.4 29.02 4.38 1 3.09 6.2 11.6 15 1.7e-008 100 1 21.0215 12.25 0 10 0.343011 0.0066222 -1.94021
 1.33 2.9 6.38 200 120 1 1.1 4 0.55 3.5 34.4 29.02 4.38 1 3.09 6.2 11.6 15 1.7e-008 100 1 21.0215 12.25 0 10 0.384992 0.0220127 -1.94127
 1.33 2.9 6.38 200 120 1 1.1 4 0.55 3.5 34.4 29.02 4.38 1 3.09 6.2 11.6 15 1.7e-008 100 1 21.0215 12.25 0 10 0.426972 0.0150734 -1.93633
 1.33 2.9 6.38 200 120 1 1.1 4 0.55 3.5 34.4 29.02 4.38 1 3.09 6.2 11.6 15 1.7e-008 100 1 21.0215 12.25 0 10 0.468953 -0.00978185 -1.95426
 1.33 2.9 6.38 200 120 1 1.1 4 0.55 3.5 34.4 29.02 4.38 1 3.09 6.2 11.6 15 1.7e-008 100 1 21.0215 12.25 0 10 0.510933 -0.0201179 -2.00291
 1.33 2.9 6.38 200 120 1 1.1 4 0.55 3.5 34.4 29.02 4.38 1 3.09 6.2 11.6 15 1.7e-008 100 1 21.0215 12.25 0 10 0.552914 0.00633373 -2.05083
 1.33 2.9 6.38 200 120 1 1.1 4 0.55 3.5 34.4 29.02 4.38 1 3.09 6.2 11.6 15 1.7e-008 100 1 21.0215 12.25 0 10 0.594894 0.044209 -2.05997
 1.33 2.9 6.38 200 120 1 1.1 4 0.55 3.5 34.4 29.02 4.38 1 3.09 6.2 11.6 15 1.7e-008 100 1 21.0215 12.25 0 10 0.636875 0.0388643 -2.04226
 1.33 2.9 6.38 200 120 1 1.1 4 0.55 3.5 34.4 29.02 4.38 1 3.09 6.2 11.6 15 1.7e-008 100 1 21.0215 12.25 0 10 0.678855 -0.0220355 -2.06611
 1.33 2.9 6.38 200 120 1 1.1 4 0.55 3.5 34.4 29.02 4.38 1 3.09 6.2 11.6 15 1.7e-008 100 1 21.0215 12.25 0 10 0.720836 -0.0664342 -2.17879
 1.33 2.9 6.38 200 120 1 1.1 4 0.55 3.5 34.4 29.02 4.38 1 3.09 6.2 11.6 15 1.7e-008 100 1 21.0215 12.25 0 10 0.762816 -0.00622464 -2.31973
 1.33 2.9 6.38 200 120 1 1.1 4 0.55 3.5 34.4 29.02 4.38 1 3.09 6.2 11.6 15 1.7e-008 100 1 21.0215 12.25 0 10 0.804797 0.126225 -2.35606
 1.33 2.9 6.38 200 120 1 1.1 4 0.55 3.5 34.4 29.02 4.38 1 3.09 6.2 11.6 15 1.7e-008 100 1 21.0215 12.25 0 10 0.846777 0.146533 -2.26395
 1.33 2.9 6.38 200 120 1 1.1 4 0.55 3.5 34.4 29.02 4.38 1 3.09 6.2 11.6 15 1.7e-008 100 1 21.0215 12.25 0 10 0.888758 -0.0831993 -2.27059
 1.33 2.9 6.38 200 120 1 1.1 4 0.55 3.5 34.4 29.02 4.38 1 3.09 6.2 11.6 15 1.7e-008 100 1 21.0215 12.25 0 10 0.930738 -0.364764 -2.70426
 1.33 2.9 6.38 200 120 1 1.1 4 0.55 3.5 34.4 29.02 4.38 1 3.09 6.2 11.6 15 1.7e-008 100 1 21.0215 12.25 0 10 0.972719 -0.157077 -3.55685
 1.33 2.9 6.38 200 120 1 1.1 4 0.55 3.5 34.4 29.02 4.38 1 3.09 6.2 11.6 15 1.7e-008 100 1 21.0215 12.25 0 10 1.0147 0.909749 -4.18125
 1.33 2.9 6.38 200 120 1 1.1 4 0.55 3.5 34.4 29.02 4.38 1 3.09 6.2 11.6 15 1.7e-008 100 1 21.0215 12.25 0 10 1.02391 -0.257167 -2.48664